"date","time","group","subject","build","blocknum","trialnum","blockcode","trialcode","pretrialpause","posttrialpause","windowcenter","trialduration","trialtimeout","blocktimeout","response","correct","latency","inwindow"
"031319","11:44:57","684060849","154435111","4.0.10.0","1","1","demographics","ProlificCode","0","0","0","0","0","0","dew","1","1330","0"
"031319","11:44:57","684060849","154435111","4.0.10.0","1","2","demographics","age","0","0","0","0","0","0","fe","1","1434","0"
"031319","11:44:57","684060849","154435111","4.0.10.0","1","3","demographics","gender","0","0","0","0","0","0","fe","1","672","0"
"031319","10:59:39","947604216","918119646","4.0.10.0","1","1","demographics","ProlificCode","0","0","0","0","0","0","5c1d289f2c45d40001473f0d","1","73762","0"
"031319","10:59:39","947604216","918119646","4.0.10.0","1","2","demographics","age","0","0","0","0","0","0","20","1","6266","0"
"031319","10:59:39","947604216","918119646","4.0.10.0","1","3","demographics","gender","0","0","0","0","0","0","Female","1","4513","0"
"031319","11:07:46","938957815","410460513","4.0.10.0","1","1","demographics","ProlificCode","0","0","0","0","0","0","5c49e145b54bd00001badf83","1","71055","0"
"031319","11:07:46","938957815","410460513","4.0.10.0","1","2","demographics","age","0","0","0","0","0","0","23 ","1","5702","0"
"031319","11:07:46","938957815","410460513","4.0.10.0","1","3","demographics","gender","0","0","0","0","0","0","female","1","4345","0"
"031319","11:27:41","422210082","927208245","4.0.10.0","1","1","demographics","ProlificCode","0","0","0","0","0","0","583b08c8dd48b20001b12857","1","9866","0"
"031319","11:27:41","422210082","927208245","4.0.10.0","1","2","demographics","age","0","0","0","0","0","0","20","1","3487","0"
"031319","11:27:41","422210082","927208245","4.0.10.0","1","3","demographics","gender","0","0","0","0","0","0","Male","1","2678","0"
"031319","11:28:27","147089997","275419729","4.0.10.0","1","1","demographics","ProlificCode","0","0","0","0","0","0","5b43619047745e0001e25eba","1","5193","0"
"031319","11:28:27","147089997","275419729","4.0.10.0","1","2","demographics","age","0","0","0","0","0","0","34","1","9011","0"
"031319","11:28:27","147089997","275419729","4.0.10.0","1","3","demographics","gender","0","0","0","0","0","0","FEMALE","1","11141","0"
"031319","11:28:56","405595892","136535858","4.0.10.0","1","1","demographics","ProlificCode","0","0","0","0","0","0","57b75b0383e3ed00019b0d67","1","2709","0"
"031319","11:28:56","405595892","136535858","4.0.10.0","1","2","demographics","age","0","0","0","0","0","0","33","1","3022","0"
"031319","11:28:56","405595892","136535858","4.0.10.0","1","3","demographics","gender","0","0","0","0","0","0","female","1","6234","0"
"031319","11:30:48","557626707","333573261","4.0.10.0","1","1","demographics","ProlificCode","0","0","0","0","0","0","5b655167dc84c6000173c4d8","1","25531","0"
"031319","11:30:48","557626707","333573261","4.0.10.0","1","2","demographics","age","0","0","0","0","0","0","26","1","5958","0"
"031319","11:30:48","557626707","333573261","4.0.10.0","1","3","demographics","gender","0","0","0","0","0","0","male","1","3890","0"
"031319","11:32:01","571546897","702310898","4.0.10.0","1","1","demographics","ProlificCode","0","0","0","0","0","0","59819492fc90e000011c5d04 ","1","36620","0"
"031319","11:32:01","571546897","702310898","4.0.10.0","1","2","demographics","age","0","0","0","0","0","0","32","1","4293","0"
"031319","11:32:01","571546897","702310898","4.0.10.0","1","3","demographics","gender","0","0","0","0","0","0","female","1","5558","0"
"031319","11:34:36","516645082","85657314","4.0.10.0","1","1","demographics","ProlificCode","0","0","0","0","0","0","56e99d054111eb000c77885b","1","10118","0"
"031319","11:34:36","516645082","85657314","4.0.10.0","1","2","demographics","age","0","0","0","0","0","0","45","1","4691","0"
"031319","11:34:36","516645082","85657314","4.0.10.0","1","3","demographics","gender","0","0","0","0","0","0","FEMALE","1","5805","0"
"031319","11:34:53","958914906","17040152","4.0.10.0","1","1","demographics","ProlificCode","0","0","0","0","0","0","","1","53704","0"
"031319","11:36:06","958914906","17040152","4.0.10.0","1","1","demographics","ProlificCode","0","0","0","0","0","0","5ac3b688fa3b4e0001735a24","1","3011","0"
"031319","11:36:06","958914906","17040152","4.0.10.0","1","2","demographics","age","0","0","0","0","0","0","24","1","2984","0"
"031319","11:36:06","958914906","17040152","4.0.10.0","1","3","demographics","gender","0","0","0","0","0","0","Female","1","4567","0"
"031319","05:35:33","408962756","582774425","4.0.10.0","1","1","demographics","ProlificCode","0","0","0","0","0","0","5b2bb00bfc75870001983add","1","35284","0"
"031319","05:35:33","408962756","582774425","4.0.10.0","1","2","demographics","age","0","0","0","0","0","0","32","1","5481","0"
"031319","05:35:33","408962756","582774425","4.0.10.0","1","3","demographics","gender","0","0","0","0","0","0","Female","1","5620","0"
"031319","11:36:05","344491254","695360630","4.0.10.0","1","1","demographics","ProlificCode","0","0","0","0","0","0","59d75f6be3a465000104b4e2","1","31799","0"
"031319","11:36:05","344491254","695360630","4.0.10.0","1","2","demographics","age","0","0","0","0","0","0","32","1","3826","0"
"031319","11:36:05","344491254","695360630","4.0.10.0","1","3","demographics","gender","0","0","0","0","0","0","male","1","3693","0"
"031319","11:36:56","512822098","480092920","4.0.10.0","1","1","demographics","ProlificCode","0","0","0","0","0","0","5601478877f33b0010cb2bfc","1","12983","0"
"031319","11:36:56","512822098","480092920","4.0.10.0","1","2","demographics","age","0","0","0","0","0","0","54","1","7792","0"
"031319","11:36:56","512822098","480092920","4.0.10.0","1","3","demographics","gender","0","0","0","0","0","0","male","1","9689","0"
"031319","11:39:23","985987574","898435423","4.0.10.0","1","1","demographics","ProlificCode","0","0","0","0","0","0","57cd4bad3be60c0001015554","1","10098","0"
"031319","11:39:23","985987574","898435423","4.0.10.0","1","2","demographics","age","0","0","0","0","0","0","21","1","3340","0"
"031319","11:39:23","985987574","898435423","4.0.10.0","1","3","demographics","gender","0","0","0","0","0","0","Male","1","4497","0"
"031319","11:41:11","947122830","759411691","4.0.10.0","1","1","demographics","ProlificCode","0","0","0","0","0","0","5bb78bfc2638cf00015aff45","1","10585","0"
"031319","11:41:11","947122830","759411691","4.0.10.0","1","2","demographics","age","0","0","0","0","0","0","23","1","2178","0"
"031319","11:41:11","947122830","759411691","4.0.10.0","1","3","demographics","gender","0","0","0","0","0","0","male","1","3023","0"
"031319","11:41:34","113772914","593939458","4.0.10.0","1","1","demographics","ProlificCode","0","0","0","0","0","0","5630b79b733ea00011164946","1","6028","0"
"031319","11:41:34","113772914","593939458","4.0.10.0","1","2","demographics","age","0","0","0","0","0","0","22","1","1976","0"
"031319","11:41:34","113772914","593939458","4.0.10.0","1","3","demographics","gender","0","0","0","0","0","0","Male","1","2825","0"
"031319","11:41:53","734385249","688124465","4.0.10.0","1","1","demographics","ProlificCode","0","0","0","0","0","0","5c2f6f539024a9000198f705","1","18018","0"
"031319","11:41:53","734385249","688124465","4.0.10.0","1","2","demographics","age","0","0","0","0","0","0","19","1","4082","0"
"031319","11:41:53","734385249","688124465","4.0.10.0","1","3","demographics","gender","0","0","0","0","0","0","male","1","2841","0"
"031319","11:41:53","778092802","66170298","4.0.10.0","1","1","demographics","ProlificCode","0","0","0","0","0","0","5c5c059e25ba03000133f0f3","1","4098","0"
"031319","11:41:53","778092802","66170298","4.0.10.0","1","2","demographics","age","0","0","0","0","0","0","41","1","4028","0"
"031319","11:41:53","778092802","66170298","4.0.10.0","1","3","demographics","gender","0","0","0","0","0","0","Female","1","5874","0"
"031319","11:44:52","566046438","888781862","4.0.10.0","1","1","demographics","ProlificCode","0","0","0","0","0","0","57fb71185babd2000141049a","1","2877","0"
"031319","11:44:52","566046438","888781862","4.0.10.0","1","2","demographics","age","0","0","0","0","0","0","38","1","3237","0"
"031319","11:44:52","566046438","888781862","4.0.10.0","1","3","demographics","gender","0","0","0","0","0","0","Male","1","4910","0"
"031319","11:47:40","803999020","471036609","4.0.10.0","1","1","demographics","ProlificCode","0","0","0","0","0","0","5c3d5129a9bfb4000168e299","1","17567","0"
"031319","11:47:40","803999020","471036609","4.0.10.0","1","2","demographics","age","0","0","0","0","0","0","19","1","3940","0"
"031319","11:47:40","803999020","471036609","4.0.10.0","1","3","demographics","gender","0","0","0","0","0","0","male","1","5760","0"
"031319","11:47:23","685310113","737199599","4.0.10.0","1","1","demographics","ProlificCode","0","0","0","0","0","0","5b799224338a93000154bd33","1","30106","0"
"031319","11:47:23","685310113","737199599","4.0.10.0","1","2","demographics","age","0","0","0","0","0","0","20","1","4061","0"
"031319","11:47:23","685310113","737199599","4.0.10.0","1","3","demographics","gender","0","0","0","0","0","0","female","1","3683","0"
"031319","11:47:09","151562966","270946760","4.0.10.0","1","1","demographics","ProlificCode","0","0","0","0","0","0","5c4611a23190b40001732cef","1","44056","0"
"031319","11:47:09","151562966","270946760","4.0.10.0","1","2","demographics","age","0","0","0","0","0","0","57","1","2810","0"
"031319","11:47:09","151562966","270946760","4.0.10.0","1","3","demographics","gender","0","0","0","0","0","0","Male","1","3038","0"
"031319","11:47:17","560226976","862282735","4.0.10.0","1","1","demographics","ProlificCode","0","0","0","0","0","0","58e38be401a35e00019a791b","1","36425","0"
"031319","11:47:17","560226976","862282735","4.0.10.0","1","2","demographics","age","0","0","0","0","0","0","40","1","3937","0"
"031319","11:47:17","560226976","862282735","4.0.10.0","1","3","demographics","gender","0","0","0","0","0","0","Male","1","6385","0"
"031319","11:48:33","153526245","810765108","4.0.10.0","1","1","demographics","ProlificCode","0","0","0","0","0","0","59a57efccf8b8d0001771f10","1","3848","0"
"031319","11:48:33","153526245","810765108","4.0.10.0","1","2","demographics","age","0","0","0","0","0","0","45","1","4074","0"
"031319","11:48:33","153526245","810765108","4.0.10.0","1","3","demographics","gender","0","0","0","0","0","0","male","1","3600","0"
"031319","11:47:13","709608636","254999475","4.0.10.0","1","1","demographics","ProlificCode","0","0","0","0","0","0","5b24cbcba7cee100011d74d4","1","17911","0"
"031319","11:47:13","709608636","254999475","4.0.10.0","1","2","demographics","age","0","0","0","0","0","0","25","1","7413","0"
"031319","11:47:13","709608636","254999475","4.0.10.0","1","3","demographics","gender","0","0","0","0","0","0","female","1","3451","0"
"031319","11:50:41","959995358","767208038","4.0.10.0","1","1","demographics","ProlificCode","0","0","0","0","0","0","54230df2fdf99b328baf8e89","1","12050","0"
"031319","11:50:41","959995358","767208038","4.0.10.0","1","2","demographics","age","0","0","0","0","0","0","34","1","5147","0"
"031319","11:50:41","959995358","767208038","4.0.10.0","1","3","demographics","gender","0","0","0","0","0","0","Female","1","4606","0"
"031319","11:50:30","149682562","257822952","4.0.10.0","1","1","demographics","ProlificCode","0","0","0","0","0","0","5b258c9ba7cee100011d8aad","1","3230","0"
"031319","11:50:30","149682562","257822952","4.0.10.0","1","2","demographics","age","0","0","0","0","0","0","24","1","2552","0"
"031319","11:50:30","149682562","257822952","4.0.10.0","1","3","demographics","gender","0","0","0","0","0","0","Male","1","2211","0"
"031319","11:50:47","473491007","563278836","4.0.10.0","1","1","demographics","ProlificCode","0","0","0","0","0","0","59eb3f862f63d30001c8ffe5","1","3287","0"
"031319","11:50:47","473491007","563278836","4.0.10.0","1","2","demographics","age","0","0","0","0","0","0","34","1","2020","0"
"031319","11:50:47","473491007","563278836","4.0.10.0","1","3","demographics","gender","0","0","0","0","0","0","female","1","5186","0"
"031319","11:50:24","791265242","49302935","4.0.10.0","1","1","demographics","ProlificCode","0","0","0","0","0","0","5b151ac3444cef0001cb0077","1","12804","0"
"031319","11:50:24","791265242","49302935","4.0.10.0","1","2","demographics","age","0","0","0","0","0","0","33","1","3982","0"
"031319","11:50:24","791265242","49302935","4.0.10.0","1","3","demographics","gender","0","0","0","0","0","0","Trans man","1","27015","0"
"031319","11:51:30","476314723","926703949","4.0.10.0","1","1","demographics","ProlificCode","0","0","0","0","0","0","5c3b121c688b59000102d6ed","1","12679","0"
"031319","11:51:30","476314723","926703949","4.0.10.0","1","2","demographics","age","0","0","0","0","0","0","28","1","3443","0"
"031319","11:51:30","476314723","926703949","4.0.10.0","1","3","demographics","gender","0","0","0","0","0","0","Female","1","3932","0"
"031319","11:51:25","502632974","534136869","4.0.10.0","1","1","demographics","ProlificCode","0","0","0","0","0","0","59493f2d16fdce00011be1be","1","15753","0"
"031319","11:51:25","502632974","534136869","4.0.10.0","1","2","demographics","age","0","0","0","0","0","0","28","1","3370","0"
"031319","11:51:25","502632974","534136869","4.0.10.0","1","3","demographics","gender","0","0","0","0","0","0","female","1","4086","0"
"031319","11:54:18","369993002","209736318","4.0.10.0","1","1","demographics","ProlificCode","0","0","0","0","0","0","","1","50108","0"
"031319","11:55:32","369993002","209736318","4.0.10.0","1","1","demographics","ProlificCode","0","0","0","0","0","0","5c797a4cde6f7900160c3ec9","1","3112","0"
"031319","11:55:32","369993002","209736318","4.0.10.0","1","2","demographics","age","0","0","0","0","0","0","20","1","3950","0"
"031319","11:55:32","369993002","209736318","4.0.10.0","1","3","demographics","gender","0","0","0","0","0","0","Female","1","4550","0"
"031319","11:57:05","909561069","902383427","4.0.10.0","1","1","demographics","ProlificCode","0","0","0","0","0","0","5bb68e9dc9fbd80001039fa9","1","7130","0"
"031319","11:57:05","909561069","902383427","4.0.10.0","1","2","demographics","age","0","0","0","0","0","0","32","1","3089","0"
"031319","11:57:05","909561069","902383427","4.0.10.0","1","3","demographics","gender","0","0","0","0","0","0","FEMALE","1","4990","0"
"031319","11:57:32","225636544","48221261","4.0.10.0","1","1","demographics","ProlificCode","0","0","0","0","0","0","5b01b3dfa496b300013d5733","1","6277","0"
"031319","11:57:32","225636544","48221261","4.0.10.0","1","2","demographics","age","0","0","0","0","0","0","19","1","2759","0"
"031319","11:57:32","225636544","48221261","4.0.10.0","1","3","demographics","gender","0","0","0","0","0","0","Male","1","5390","0"
"031319","04:57:42","905397340","979025654","4.0.10.0","1","1","demographics","ProlificCode","0","0","0","0","0","0","5a69f41df10cdb0001b10329","1","12465","0"
"031319","04:57:42","905397340","979025654","4.0.10.0","1","2","demographics","age","0","0","0","0","0","0","31","1","2510","0"
"031319","04:57:42","905397340","979025654","4.0.10.0","1","3","demographics","gender","0","0","0","0","0","0","male","1","3945","0"
"031319","11:58:13","621727717","785777783","4.0.10.0","1","1","demographics","ProlificCode","0","0","0","0","0","0","5aa43fc1dbdb470001ef45ec","1","2463","0"
"031319","11:58:13","621727717","785777783","4.0.10.0","1","2","demographics","age","0","0","0","0","0","0","24","1","3105","0"
"031319","11:58:13","621727717","785777783","4.0.10.0","1","3","demographics","gender","0","0","0","0","0","0","Male","1","4655","0"
"031319","11:57:49","138790098","897979749","4.0.10.0","1","1","demographics","ProlificCode","0","0","0","0","0","0","552845ddfdf99b3402cfc6ff","1","47667","0"
"031319","11:57:49","138790098","897979749","4.0.10.0","1","2","demographics","age","0","0","0","0","0","0","31","1","3612","0"
"031319","11:57:49","138790098","897979749","4.0.10.0","1","3","demographics","gender","0","0","0","0","0","0","M","1","2784","0"
"031319","09:28:27","423492878","678527034","4.0.10.0","1","1","demographics","ProlificCode","0","0","0","0","0","0","5b1659a24c72120001f193c6","1","9174","0"
"031319","09:28:27","423492878","678527034","4.0.10.0","1","2","demographics","age","0","0","0","0","0","0","27","1","1851","0"
"031319","09:28:27","423492878","678527034","4.0.10.0","1","3","demographics","gender","0","0","0","0","0","0","Male","1","3208","0"
"031319","11:58:36","639855294","867395522","4.0.10.0","1","1","demographics","ProlificCode","0","0","0","0","0","0","59e76dcc5de9b000017ed285","1","15014","0"
"031319","11:58:36","639855294","867395522","4.0.10.0","1","2","demographics","age","0","0","0","0","0","0","22","1","2617","0"
"031319","11:58:36","639855294","867395522","4.0.10.0","1","3","demographics","gender","0","0","0","0","0","0","Female","1","4235","0"
"031319","11:59:19","364780386","737239526","4.0.10.0","1","1","demographics","ProlificCode","0","0","0","0","0","0","5c4ce29ad7c9720001295e1b","1","45076","0"
"031319","11:59:19","364780386","737239526","4.0.10.0","1","2","demographics","age","0","0","0","0","0","0","37","1","3634","0"
"031319","11:59:19","364780386","737239526","4.0.10.0","1","3","demographics","gender","0","0","0","0","0","0","Female","1","4456","0"
"031319","12:00:10","790813161","273402521","4.0.10.0","1","1","demographics","ProlificCode","0","0","0","0","0","0","59d493c6e59146000112e4f9","1","3381","0"
"031319","12:00:10","790813161","273402521","4.0.10.0","1","2","demographics","age","0","0","0","0","0","0","31","1","3212","0"
"031319","12:00:10","790813161","273402521","4.0.10.0","1","3","demographics","gender","0","0","0","0","0","0","female","1","3330","0"
"031319","12:00:04","407618917","251978747","4.0.10.0","1","1","demographics","ProlificCode","0","0","0","0","0","0","5c2fbaa589f035000176533a","1","21878","0"
"031319","12:00:04","407618917","251978747","4.0.10.0","1","2","demographics","age","0","0","0","0","0","0","34","1","11172","0"
"031319","12:00:04","407618917","251978747","4.0.10.0","1","3","demographics","gender","0","0","0","0","0","0","f","1","2362","0"
"031319","21:59:12","195635887","77923792","4.0.10.0","1","1","demographics","ProlificCode","0","0","0","0","0","0","5c5415ef6a5931000010bd541","1","116139","0"
"031319","21:59:12","195635887","77923792","4.0.10.0","1","2","demographics","age","0","0","0","0","0","0","28","1","4181","0"
"031319","21:59:12","195635887","77923792","4.0.10.0","1","3","demographics","gender","0","0","0","0","0","0","Female","1","5328","0"
"031319","12:02:30","650935520","8662148","4.0.10.0","1","1","demographics","ProlificCode","0","0","0","0","0","0","5bff44c65388d300017e5cf1","1","10898","0"
"031319","12:02:30","650935520","8662148","4.0.10.0","1","2","demographics","age","0","0","0","0","0","0","36","1","3440","0"
"031319","12:02:30","650935520","8662148","4.0.10.0","1","3","demographics","gender","0","0","0","0","0","0","Female","1","4994","0"
"031319","12:03:05","281582781","140926942","4.0.10.0","1","1","demographics","ProlificCode","0","0","0","0","0","0","5bc79ecb7fde8000012a7abe","1","12367","0"
"031319","12:03:05","281582781","140926942","4.0.10.0","1","2","demographics","age","0","0","0","0","0","0","26","1","5884","0"
"031319","12:03:05","281582781","140926942","4.0.10.0","1","3","demographics","gender","0","0","0","0","0","0","Female","1","4189","0"
"031319","12:10:30","759482914","840732580","4.0.10.0","1","1","demographics","ProlificCode","0","0","0","0","0","0","5bf001c94863520001b1ca03","1","21540","0"
"031319","12:10:30","759482914","840732580","4.0.10.0","1","2","demographics","age","0","0","0","0","0","0","35","1","4075","0"
"031319","12:10:30","759482914","840732580","4.0.10.0","1","3","demographics","gender","0","0","0","0","0","0","Male","1","5600","0"
"031319","23:27:56","431395931","128456418","4.0.10.0","1","1","demographics","ProlificCode","0","0","0","0","0","0","5ba416ce509a380001bef970","1","15493","0"
"031319","23:27:56","431395931","128456418","4.0.10.0","1","2","demographics","age","0","0","0","0","0","0","33","1","3392","0"
"031319","23:27:56","431395931","128456418","4.0.10.0","1","3","demographics","gender","0","0","0","0","0","0","male","1","4615","0"
"031319","12:32:17","62153377","370994290","4.0.10.0","1","1","demographics","ProlificCode","0","0","0","0","0","0","5afd421f7d6f3a000197443b","1","3267","0"
"031319","12:32:17","62153377","370994290","4.0.10.0","1","2","demographics","age","0","0","0","0","0","0","25","1","2668","0"
"031319","12:32:17","62153377","370994290","4.0.10.0","1","3","demographics","gender","0","0","0","0","0","0","Female","1","3637","0"
"031319","12:34:15","140560918","289903599","4.0.10.0","1","1","demographics","ProlificCode","0","0","0","0","0","0","5c708c47bc6ab00001d7a8e0","1","97908","0"
"031319","12:34:15","140560918","289903599","4.0.10.0","1","2","demographics","age","0","0","0","0","0","0","23","1","3177","0"
"031319","12:34:15","140560918","289903599","4.0.10.0","1","3","demographics","gender","0","0","0","0","0","0","Male","1","5103","0"
"031319","12:38:38","110304131","188096480","4.0.10.0","1","1","demographics","ProlificCode","0","0","0","0","0","0","58487b9851f36","1","57229","0"
"031319","12:38:38","110304131","188096480","4.0.10.0","1","2","demographics","age","0","0","0","0","0","0","23","1","3467","0"
"031319","12:38:38","110304131","188096480","4.0.10.0","1","3","demographics","gender","0","0","0","0","0","0","female","1","4910","0"
"031319","09:16:18","942587685","684078495","4.0.10.0","1","1","demographics","ProlificCode","0","0","0","0","0","0","5c71a9d4db12e3000146b8d2","1","15576","0"
"031319","09:16:18","942587685","684078495","4.0.10.0","1","2","demographics","age","0","0","0","0","0","0","19","1","2939","0"
"031319","09:16:18","942587685","684078495","4.0.10.0","1","3","demographics","gender","0","0","0","0","0","0","Female","1","2730","0"
