subject,trialcode,correct,latency,stimulusitem1
918119646,unpleasant,1,474,unpleasant9.jpg
918119646,neutral,0,477,N106.bmp
918119646,pleasant,1,505,pleasant10.jpg
918119646,pleasant,1,480,pleasant3.jpg
918119646,neutral,0,485,N092.bmp
918119646,white,1,583,white2.png
918119646,unpleasant,1,536,unpleasant12.jpg
918119646,pleasant,1,493,pleasant10.jpg
918119646,neutral,0,521,N020.bmp
918119646,black,1,633,black2.png
918119646,neutral,0,568,N011.bmp
918119646,pleasant,1,477,pleasant1.jpg
918119646,pleasant,1,441,pleasant7.jpg
918119646,white,0,499,white3.png
918119646,neutral,0,586,N089.bmp
918119646,neutral,0,755,N101.bmp
918119646,pleasant,1,496,pleasant3.jpg
918119646,unpleasant,1,464,unpleasant12.jpg
918119646,black,0,332,black1.png
918119646,unpleasant,1,522,unpleasant11.jpg
918119646,pleasant,1,615,pleasant1.jpg
918119646,neutral,0,505,N039.bmp
918119646,neutral,1,653,N081.bmp
918119646,neutral,1,575,N102.bmp
918119646,neutral,1,457,N061.bmp
918119646,black,1,545,black4.png
918119646,unpleasant,1,525,unpleasant9.jpg
918119646,neutral,0,377,N101.bmp
918119646,pleasant,1,427,pleasant7.jpg
918119646,neutral,0,509,N106.bmp
918119646,neutral,0,612,N011.bmp
918119646,black,1,525,black3.png
918119646,pleasant,1,477,pleasant10.jpg
918119646,neutral,0,800,N039.bmp
918119646,neutral,0,508,N089.bmp
918119646,pleasant,1,413,pleasant3.jpg
918119646,unpleasant,0,450,unpleasant10.jpg
918119646,black,1,715,black4.png
918119646,unpleasant,1,487,unpleasant12.jpg
918119646,white,0,667,white1.png
918119646,neutral,0,524,N092.bmp
918119646,pleasant,1,452,pleasant3.jpg
918119646,neutral,0,608,N061.bmp
918119646,white,0,359,white4.png
918119646,pleasant,1,476,pleasant7.jpg
918119646,neutral,0,516,N081.bmp
918119646,white,0,378,white4.png
918119646,unpleasant,1,529,unpleasant10.jpg
918119646,unpleasant,1,446,unpleasant9.jpg
918119646,black,0,356,black3.png
918119646,white,0,409,white3.png
918119646,pleasant,1,539,pleasant10.jpg
918119646,neutral,1,613,N020.bmp
918119646,unpleasant,0,514,unpleasant11.jpg
918119646,unpleasant,1,514,unpleasant10.jpg
918119646,pleasant,1,444,pleasant1.jpg
918119646,neutral,0,491,N102.bmp
918119646,unpleasant,1,420,unpleasant12.jpg
918119646,pleasant,0,455,pleasant10.jpg
918119646,unpleasant,1,511,unpleasant11.jpg
918119646,neutral,1,716,N011.bmp
918119646,unpleasant,1,495,unpleasant9.jpg
918119646,white,0,383,white2.png
918119646,neutral,0,469,N081.bmp
918119646,white,0,384,white1.png
918119646,black,0,580,black2.png
918119646,unpleasant,1,482,unpleasant10.jpg
918119646,pleasant,1,342,pleasant1.jpg
918119646,black,0,292,black1.png
918119646,neutral,0,401,N039.bmp
918119646,white,0,309,white1.png
918119646,unpleasant,1,439,unpleasant12.jpg
918119646,black,0,293,black4.png
918119646,white,0,280,white3.png
918119646,white,0,260,white4.png
918119646,white,0,320,white2.png
918119646,pleasant,1,469,pleasant7.jpg
918119646,pleasant,1,430,pleasant3.jpg
918119646,neutral,1,455,N106.bmp
918119646,black,1,385,black2.png
918119646,unpleasant,1,544,unpleasant11.jpg
918119646,white,0,319,white4.png
918119646,black,0,342,black3.png
918119646,pleasant,1,426,pleasant1.jpg
918119646,pleasant,1,428,pleasant7.jpg
918119646,neutral,1,427,N101.bmp
918119646,pleasant,1,494,pleasant3.jpg
918119646,black,1,525,black1.png
918119646,neutral,1,491,N092.bmp
918119646,neutral,1,417,N061.bmp
918119646,unpleasant,1,402,unpleasant9.jpg
918119646,pleasant,0,339,pleasant10.jpg
918119646,pleasant,1,550,pleasant10.jpg
918119646,unpleasant,1,388,unpleasant10.jpg
918119646,neutral,0,452,N020.bmp
918119646,unpleasant,1,497,unpleasant9.jpg
918119646,unpleasant,1,441,unpleasant11.jpg
918119646,unpleasant,1,493,unpleasant12.jpg
918119646,neutral,0,380,N089.bmp
918119646,neutral,0,387,N102.bmp
918119646,unpleasant,1,386,unpleasant12.jpg
918119646,neutral,0,262,N089.bmp
918119646,unpleasant,1,394,unpleasant10.jpg
918119646,unpleasant,1,403,unpleasant11.jpg
918119646,unpleasant,1,515,unpleasant9.jpg
918119646,pleasant,1,482,pleasant3.jpg
918119646,unpleasant,1,496,unpleasant10.jpg
918119646,pleasant,1,344,pleasant1.jpg
918119646,pleasant,0,428,pleasant7.jpg
918119646,white,0,522,white2.png
918119646,neutral,0,467,N092.bmp
918119646,neutral,0,400,N106.bmp
918119646,neutral,0,368,N061.bmp
918119646,pleasant,1,480,pleasant7.jpg
918119646,black,1,403,black1.png
918119646,unpleasant,1,746,unpleasant12.jpg
918119646,unpleasant,1,583,unpleasant11.jpg
918119646,neutral,0,608,N039.bmp
918119646,unpleasant,1,581,unpleasant9.jpg
918119646,neutral,0,456,N102.bmp
918119646,unpleasant,0,584,unpleasant9.jpg
918119646,pleasant,1,540,pleasant1.jpg
918119646,neutral,0,575,N020.bmp
918119646,unpleasant,1,475,unpleasant10.jpg
918119646,neutral,0,450,N101.bmp
918119646,unpleasant,1,600,unpleasant12.jpg
918119646,unpleasant,1,495,unpleasant11.jpg
918119646,unpleasant,1,664,unpleasant12.jpg
918119646,unpleasant,1,451,unpleasant9.jpg
918119646,pleasant,1,553,pleasant10.jpg
918119646,unpleasant,1,449,unpleasant10.jpg
918119646,unpleasant,1,701,unpleasant11.jpg
918119646,pleasant,1,521,pleasant3.jpg
918119646,pleasant,1,471,pleasant1.jpg
918119646,white,0,423,white3.png
918119646,neutral,0,529,N011.bmp
918119646,pleasant,1,512,pleasant3.jpg
918119646,neutral,1,441,N081.bmp
918119646,pleasant,1,569,pleasant10.jpg
918119646,unpleasant,0,416,unpleasant10.jpg
918119646,white,0,496,white1.png
918119646,neutral,0,608,N020.bmp
918119646,neutral,0,440,N061.bmp
918119646,neutral,0,554,N089.bmp
918119646,neutral,0,408,N101.bmp
918119646,neutral,0,428,N106.bmp
918119646,pleasant,1,590,pleasant7.jpg
918119646,unpleasant,1,513,unpleasant12.jpg
918119646,unpleasant,1,539,unpleasant11.jpg
918119646,black,0,364,black2.png
918119646,neutral,0,383,N081.bmp
918119646,pleasant,1,523,pleasant3.jpg
918119646,unpleasant,1,557,unpleasant9.jpg
918119646,pleasant,1,566,pleasant10.jpg
918119646,pleasant,1,566,pleasant7.jpg
918119646,neutral,1,578,N039.bmp
918119646,pleasant,1,721,pleasant1.jpg
918119646,white,1,638,white2.png
918119646,neutral,1,439,N092.bmp
918119646,neutral,1,461,N102.bmp
918119646,white,1,352,white4.png
918119646,neutral,1,432,N011.bmp
918119646,unpleasant,1,553,unpleasant12.jpg
918119646,pleasant,1,491,pleasant3.jpg
918119646,neutral,0,547,N089.bmp
918119646,pleasant,1,754,pleasant1.jpg
918119646,unpleasant,1,488,unpleasant10.jpg
918119646,unpleasant,0,481,unpleasant9.jpg
918119646,unpleasant,1,524,unpleasant11.jpg
918119646,neutral,0,647,N039.bmp
918119646,white,0,470,white3.png
918119646,black,0,356,black3.png
918119646,black,0,381,black4.png
918119646,pleasant,0,323,pleasant7.jpg
918119646,neutral,0,475,N106.bmp
918119646,unpleasant,1,638,unpleasant9.jpg
918119646,neutral,0,375,N061.bmp
918119646,pleasant,1,450,pleasant10.jpg
918119646,neutral,0,525,N011.bmp
918119646,unpleasant,0,800,unpleasant12.jpg
918119646,pleasant,1,578,pleasant1.jpg
918119646,unpleasant,1,401,unpleasant11.jpg
918119646,black,0,345,black1.png
918119646,black,0,387,black2.png
918119646,pleasant,1,482,pleasant3.jpg
918119646,neutral,0,503,N081.bmp
918119646,unpleasant,1,359,unpleasant10.jpg
918119646,unpleasant,1,454,unpleasant12.jpg
918119646,unpleasant,1,445,unpleasant9.jpg
918119646,unpleasant,1,358,unpleasant10.jpg
918119646,neutral,0,374,N101.bmp
918119646,black,0,460,black4.png
918119646,neutral,0,800,N020.bmp
918119646,black,0,358,black3.png
918119646,unpleasant,1,414,unpleasant11.jpg
918119646,black,0,381,black1.png
918119646,unpleasant,1,399,unpleasant9.jpg
918119646,pleasant,1,762,pleasant7.jpg
918119646,neutral,0,390,N092.bmp
918119646,pleasant,1,500,pleasant10.jpg
918119646,neutral,1,427,N102.bmp
918119646,neutral,1,415,N011.bmp
918119646,neutral,1,428,N061.bmp
918119646,black,1,389,black3.png
918119646,pleasant,1,534,pleasant1.jpg
918119646,pleasant,1,363,pleasant7.jpg
918119646,pleasant,1,474,pleasant3.jpg
918119646,pleasant,1,433,pleasant10.jpg
918119646,neutral,1,520,N020.bmp
918119646,neutral,1,419,N102.bmp
918119646,pleasant,1,411,pleasant10.jpg
918119646,neutral,1,371,N092.bmp
918119646,neutral,1,453,N101.bmp
918119646,white,1,392,white1.png
918119646,neutral,1,399,N089.bmp
918119646,white,1,478,white3.png
918119646,unpleasant,0,410,unpleasant11.jpg
918119646,unpleasant,1,441,unpleasant10.jpg
918119646,black,0,421,black4.png
918119646,unpleasant,1,484,unpleasant12.jpg
918119646,pleasant,1,583,pleasant3.jpg
918119646,white,1,347,white4.png
918119646,neutral,1,556,N039.bmp
918119646,pleasant,1,555,pleasant7.jpg
918119646,pleasant,1,393,pleasant1.jpg
918119646,neutral,1,440,N106.bmp
918119646,white,1,647,white2.png
918119646,unpleasant,1,590,unpleasant11.jpg
918119646,neutral,0,524,N081.bmp
918119646,neutral,0,555,N092.bmp
918119646,pleasant,1,496,pleasant3.jpg
918119646,black,0,547,black2.png
918119646,pleasant,0,388,pleasant7.jpg
918119646,pleasant,1,464,pleasant1.jpg
918119646,pleasant,1,465,pleasant10.jpg
918119646,pleasant,1,352,pleasant1.jpg
918119646,neutral,0,480,N081.bmp
918119646,pleasant,1,796,pleasant7.jpg
918119646,pleasant,1,466,pleasant10.jpg
918119646,pleasant,1,428,pleasant3.jpg
918119646,pleasant,1,341,pleasant1.jpg
918119646,neutral,1,361,N061.bmp
918119646,unpleasant,1,481,unpleasant12.jpg
918119646,unpleasant,1,416,unpleasant10.jpg
918119646,unpleasant,0,535,unpleasant9.jpg
918119646,white,0,483,white1.png
918119646,unpleasant,1,644,unpleasant9.jpg
918119646,neutral,0,394,N020.bmp
918119646,unpleasant,1,374,unpleasant12.jpg
918119646,white,0,392,white4.png
410460513,unpleasant,1,581,unpleasant9.jpg
410460513,unpleasant,1,466,unpleasant10.jpg
410460513,black,1,663,black1.png
410460513,neutral,0,771,N101.bmp
410460513,black,1,600,black2.png
410460513,unpleasant,1,645,unpleasant10.jpg
410460513,pleasant,1,521,pleasant10.jpg
410460513,black,1,475,black3.png
410460513,pleasant,1,600,pleasant1.jpg
410460513,pleasant,1,577,pleasant7.jpg
410460513,neutral,0,579,N020.bmp
410460513,unpleasant,1,534,unpleasant12.jpg
410460513,neutral,0,537,N081.bmp
410460513,pleasant,1,642,pleasant10.jpg
410460513,white,1,492,white2.png
410460513,white,1,490,white4.png
410460513,unpleasant,1,561,unpleasant9.jpg
410460513,unpleasant,1,602,unpleasant11.jpg
410460513,pleasant,1,612,pleasant3.jpg
410460513,neutral,0,554,N039.bmp
410460513,unpleasant,1,578,unpleasant12.jpg
410460513,pleasant,1,550,pleasant1.jpg
410460513,neutral,0,579,N011.bmp
410460513,pleasant,1,604,pleasant3.jpg
410460513,white,1,573,white1.png
410460513,neutral,0,602,N089.bmp
410460513,neutral,0,588,N092.bmp
410460513,unpleasant,1,698,unpleasant9.jpg
410460513,black,1,547,black4.png
410460513,black,1,495,black1.png
410460513,pleasant,1,654,pleasant1.jpg
410460513,neutral,0,606,N106.bmp
410460513,pleasant,1,625,pleasant7.jpg
410460513,pleasant,0,800,pleasant10.jpg
410460513,unpleasant,0,800,unpleasant10.jpg
410460513,pleasant,1,591,pleasant10.jpg
410460513,black,1,505,black3.png
410460513,unpleasant,1,601,unpleasant11.jpg
410460513,pleasant,1,514,pleasant3.jpg
410460513,unpleasant,1,537,unpleasant10.jpg
410460513,unpleasant,1,569,unpleasant12.jpg
410460513,neutral,0,593,N061.bmp
410460513,unpleasant,1,559,unpleasant11.jpg
410460513,white,1,491,white3.png
410460513,white,0,746,white3.png
410460513,unpleasant,0,800,unpleasant9.jpg
410460513,neutral,0,664,N102.bmp
410460513,unpleasant,1,552,unpleasant12.jpg
410460513,neutral,0,498,N106.bmp
410460513,unpleasant,1,786,unpleasant10.jpg
410460513,black,1,526,black4.png
410460513,unpleasant,1,707,unpleasant11.jpg
410460513,pleasant,1,574,pleasant7.jpg
410460513,neutral,0,773,N101.bmp
410460513,black,1,505,black2.png
410460513,black,1,448,black1.png
410460513,black,1,453,black4.png
410460513,pleasant,1,546,pleasant1.jpg
410460513,white,1,556,white1.png
410460513,unpleasant,1,599,unpleasant9.jpg
410460513,black,1,477,black3.png
410460513,neutral,0,532,N011.bmp
410460513,white,1,677,white4.png
410460513,pleasant,1,657,pleasant10.jpg
410460513,pleasant,1,567,pleasant7.jpg
410460513,unpleasant,1,659,unpleasant11.jpg
410460513,unpleasant,1,551,unpleasant9.jpg
410460513,neutral,0,800,N092.bmp
410460513,pleasant,1,498,pleasant1.jpg
410460513,black,1,691,black2.png
410460513,neutral,0,730,N039.bmp
410460513,pleasant,1,597,pleasant3.jpg
410460513,neutral,1,700,N089.bmp
410460513,pleasant,1,509,pleasant10.jpg
410460513,neutral,1,591,N081.bmp
410460513,pleasant,1,465,pleasant3.jpg
410460513,pleasant,1,620,pleasant1.jpg
410460513,white,1,615,white2.png
410460513,pleasant,1,440,pleasant7.jpg
410460513,pleasant,1,421,pleasant3.jpg
410460513,neutral,0,625,N102.bmp
410460513,white,0,800,white4.png
410460513,unpleasant,1,667,unpleasant10.jpg
410460513,unpleasant,1,508,unpleasant12.jpg
410460513,pleasant,1,566,pleasant10.jpg
410460513,neutral,0,570,N061.bmp
410460513,black,1,569,black1.png
410460513,neutral,0,668,N020.bmp
410460513,neutral,0,676,N092.bmp
410460513,pleasant,1,561,pleasant7.jpg
410460513,neutral,0,644,N081.bmp
410460513,neutral,0,427,N106.bmp
410460513,pleasant,1,538,pleasant1.jpg
410460513,pleasant,1,566,pleasant10.jpg
410460513,neutral,1,586,N089.bmp
410460513,neutral,1,666,N011.bmp
410460513,black,1,573,black2.png
410460513,neutral,1,615,N102.bmp
410460513,neutral,1,633,N039.bmp
410460513,neutral,1,558,N101.bmp
410460513,white,0,797,white3.png
410460513,pleasant,1,617,pleasant3.jpg
410460513,pleasant,1,712,pleasant1.jpg
410460513,unpleasant,1,632,unpleasant10.jpg
410460513,neutral,0,532,N061.bmp
410460513,black,1,643,black3.png
410460513,unpleasant,1,571,unpleasant9.jpg
410460513,black,1,789,black4.png
410460513,neutral,0,574,N020.bmp
410460513,neutral,0,506,N020.bmp
410460513,neutral,1,773,N039.bmp
410460513,white,1,539,white1.png
410460513,neutral,1,520,N089.bmp
410460513,neutral,1,594,N081.bmp
410460513,black,1,640,black3.png
410460513,white,1,482,white2.png
410460513,neutral,0,703,N102.bmp
410460513,neutral,0,510,N011.bmp
410460513,black,0,441,black2.png
410460513,unpleasant,0,800,unpleasant11.jpg
410460513,white,0,800,white1.png
410460513,unpleasant,1,538,unpleasant12.jpg
410460513,unpleasant,1,390,unpleasant10.jpg
410460513,neutral,0,583,N101.bmp
410460513,white,1,561,white2.png
410460513,unpleasant,1,603,unpleasant9.jpg
410460513,pleasant,1,635,pleasant7.jpg
410460513,unpleasant,1,542,unpleasant12.jpg
410460513,unpleasant,1,486,unpleasant11.jpg
410460513,unpleasant,1,665,unpleasant11.jpg
410460513,neutral,0,679,N061.bmp
410460513,black,1,596,black4.png
410460513,pleasant,1,564,pleasant1.jpg
410460513,neutral,0,630,N106.bmp
410460513,pleasant,1,607,pleasant3.jpg
410460513,pleasant,1,553,pleasant7.jpg
410460513,neutral,0,539,N092.bmp
410460513,black,1,520,black1.png
410460513,unpleasant,1,544,unpleasant12.jpg
410460513,unpleasant,1,558,unpleasant10.jpg
410460513,white,1,435,white4.png
410460513,pleasant,1,554,pleasant10.jpg
410460513,unpleasant,1,605,unpleasant9.jpg
410460513,white,1,583,white3.png
410460513,pleasant,0,511,pleasant3.jpg
410460513,neutral,0,797,N039.bmp
410460513,white,1,610,white3.png
410460513,white,1,579,white1.png
410460513,unpleasant,1,580,unpleasant9.jpg
410460513,neutral,0,551,N081.bmp
410460513,neutral,0,583,N089.bmp
410460513,unpleasant,1,631,unpleasant11.jpg
410460513,unpleasant,1,515,unpleasant12.jpg
410460513,black,1,543,black2.png
410460513,unpleasant,1,729,unpleasant10.jpg
410460513,pleasant,1,576,pleasant1.jpg
410460513,pleasant,1,543,pleasant10.jpg
410460513,unpleasant,0,414,unpleasant9.jpg
410460513,pleasant,1,616,pleasant7.jpg
410460513,neutral,0,663,N101.bmp
410460513,neutral,0,632,N020.bmp
410460513,white,1,621,white2.png
410460513,neutral,0,536,N092.bmp
410460513,unpleasant,1,672,unpleasant12.jpg
410460513,unpleasant,1,574,unpleasant10.jpg
410460513,black,1,428,black3.png
410460513,white,1,763,white4.png
410460513,unpleasant,1,533,unpleasant11.jpg
410460513,neutral,0,603,N106.bmp
410460513,pleasant,1,580,pleasant7.jpg
410460513,neutral,0,615,N061.bmp
410460513,neutral,0,570,N011.bmp
410460513,pleasant,1,554,pleasant1.jpg
410460513,unpleasant,1,713,unpleasant10.jpg
410460513,neutral,0,564,N102.bmp
410460513,pleasant,1,517,pleasant10.jpg
410460513,pleasant,1,564,pleasant3.jpg
410460513,pleasant,1,466,pleasant7.jpg
410460513,pleasant,1,513,pleasant3.jpg
410460513,neutral,0,516,N102.bmp
410460513,pleasant,1,619,pleasant1.jpg
410460513,pleasant,1,593,pleasant10.jpg
410460513,neutral,0,547,N011.bmp
410460513,neutral,0,549,N106.bmp
410460513,neutral,0,679,N039.bmp
410460513,neutral,0,517,N089.bmp
410460513,pleasant,1,690,pleasant1.jpg
410460513,pleasant,1,540,pleasant10.jpg
410460513,pleasant,1,422,pleasant3.jpg
410460513,unpleasant,1,596,unpleasant9.jpg
410460513,neutral,0,545,N092.bmp
410460513,neutral,0,700,N101.bmp
410460513,pleasant,1,590,pleasant7.jpg
410460513,unpleasant,1,612,unpleasant11.jpg
410460513,pleasant,1,540,pleasant7.jpg
410460513,unpleasant,1,470,unpleasant12.jpg
410460513,neutral,0,468,N061.bmp
410460513,black,1,535,black1.png
410460513,neutral,0,629,N081.bmp
410460513,unpleasant,1,562,unpleasant12.jpg
410460513,pleasant,1,496,pleasant1.jpg
410460513,unpleasant,1,574,unpleasant11.jpg
410460513,unpleasant,1,569,unpleasant10.jpg
410460513,neutral,1,484,N020.bmp
410460513,pleasant,1,520,pleasant10.jpg
410460513,white,1,518,white2.png
410460513,unpleasant,1,502,unpleasant9.jpg
410460513,neutral,0,486,N011.bmp
410460513,neutral,0,451,N061.bmp
410460513,white,0,800,white3.png
410460513,pleasant,1,648,pleasant3.jpg
410460513,neutral,0,561,N092.bmp
410460513,unpleasant,1,622,unpleasant9.jpg
410460513,pleasant,1,647,pleasant7.jpg
410460513,neutral,0,526,N101.bmp
410460513,neutral,0,535,N089.bmp
410460513,neutral,0,562,N039.bmp
410460513,unpleasant,1,773,unpleasant11.jpg
410460513,unpleasant,1,513,unpleasant12.jpg
410460513,pleasant,1,605,pleasant3.jpg
410460513,neutral,0,572,N102.bmp
410460513,white,1,719,white4.png
410460513,pleasant,1,600,pleasant1.jpg
410460513,black,1,509,black4.png
410460513,unpleasant,1,591,unpleasant10.jpg
410460513,pleasant,1,669,pleasant10.jpg
410460513,unpleasant,1,527,unpleasant10.jpg
410460513,pleasant,1,510,pleasant3.jpg
410460513,unpleasant,1,549,unpleasant11.jpg
410460513,neutral,1,563,N106.bmp
410460513,unpleasant,1,540,unpleasant12.jpg
410460513,unpleasant,1,542,unpleasant9.jpg
410460513,neutral,0,456,N020.bmp
410460513,pleasant,1,546,pleasant7.jpg
410460513,black,1,595,black2.png
410460513,neutral,0,594,N081.bmp
410460513,neutral,0,564,N089.bmp
410460513,pleasant,1,635,pleasant1.jpg
410460513,pleasant,1,534,pleasant10.jpg
410460513,pleasant,1,589,pleasant7.jpg
410460513,unpleasant,1,534,unpleasant9.jpg
410460513,black,1,730,black3.png
410460513,pleasant,1,528,pleasant1.jpg
410460513,neutral,0,560,N102.bmp
410460513,unpleasant,1,546,unpleasant11.jpg
410460513,unpleasant,1,433,unpleasant10.jpg
410460513,white,1,623,white1.png
410460513,white,1,572,white4.png
410460513,unpleasant,1,541,unpleasant12.jpg
410460513,neutral,0,526,N101.bmp
927208245,neutral,0,520,N102.bmp
927208245,pleasant,1,570,pleasant7.jpg
927208245,pleasant,1,551,pleasant10.jpg
927208245,pleasant,1,534,pleasant3.jpg
927208245,neutral,0,534,N081.bmp
927208245,pleasant,1,486,pleasant10.jpg
927208245,pleasant,1,463,pleasant7.jpg
927208245,pleasant,1,434,pleasant1.jpg
927208245,black,0,581,black3.png
927208245,unpleasant,1,628,unpleasant9.jpg
927208245,unpleasant,1,656,unpleasant11.jpg
927208245,neutral,0,523,N039.bmp
927208245,black,0,540,black2.png
927208245,neutral,1,564,N011.bmp
927208245,neutral,1,612,N061.bmp
927208245,neutral,1,738,N092.bmp
927208245,pleasant,1,650,pleasant10.jpg
927208245,neutral,1,597,N106.bmp
927208245,neutral,1,707,N089.bmp
927208245,pleasant,1,581,pleasant7.jpg
927208245,pleasant,1,515,pleasant1.jpg
927208245,pleasant,1,508,pleasant3.jpg
927208245,unpleasant,1,572,unpleasant12.jpg
927208245,neutral,0,642,N101.bmp
927208245,neutral,1,574,N020.bmp
927208245,unpleasant,1,733,unpleasant10.jpg
927208245,neutral,0,708,N011.bmp
927208245,unpleasant,0,462,unpleasant11.jpg
927208245,neutral,0,747,N039.bmp
927208245,unpleasant,0,579,unpleasant9.jpg
927208245,pleasant,1,588,pleasant10.jpg
927208245,neutral,1,666,N061.bmp
927208245,pleasant,1,493,pleasant1.jpg
927208245,neutral,1,495,N106.bmp
927208245,pleasant,1,489,pleasant7.jpg
927208245,unpleasant,1,538,unpleasant10.jpg
927208245,pleasant,1,506,pleasant3.jpg
927208245,unpleasant,0,442,unpleasant9.jpg
927208245,black,0,696,black1.png
927208245,black,1,539,black4.png
927208245,pleasant,1,731,pleasant10.jpg
927208245,unpleasant,1,715,unpleasant12.jpg
927208245,pleasant,1,516,pleasant7.jpg
927208245,pleasant,1,412,pleasant3.jpg
927208245,white,0,697,white2.png
927208245,neutral,0,716,N092.bmp
927208245,white,1,541,white1.png
927208245,pleasant,1,749,pleasant1.jpg
927208245,white,1,669,white4.png
927208245,black,0,536,black1.png
927208245,neutral,1,592,N081.bmp
927208245,black,1,630,black2.png
927208245,neutral,0,459,N089.bmp
927208245,white,1,519,white3.png
927208245,black,1,504,black3.png
927208245,white,0,466,white1.png
927208245,neutral,1,734,N101.bmp
927208245,unpleasant,0,800,unpleasant11.jpg
927208245,pleasant,1,534,pleasant1.jpg
927208245,unpleasant,1,621,unpleasant11.jpg
927208245,pleasant,1,496,pleasant3.jpg
927208245,unpleasant,0,730,unpleasant12.jpg
927208245,neutral,0,644,N020.bmp
927208245,unpleasant,0,737,unpleasant9.jpg
927208245,unpleasant,1,611,unpleasant10.jpg
927208245,white,0,800,white2.png
927208245,unpleasant,0,447,unpleasant11.jpg
927208245,neutral,0,470,N102.bmp
927208245,unpleasant,1,705,unpleasant9.jpg
927208245,black,1,441,black4.png
927208245,unpleasant,1,526,unpleasant10.jpg
927208245,unpleasant,1,486,unpleasant12.jpg
927208245,neutral,0,567,N102.bmp
927208245,pleasant,1,478,pleasant10.jpg
927208245,unpleasant,0,504,unpleasant11.jpg
927208245,neutral,1,580,N106.bmp
927208245,neutral,1,611,N101.bmp
927208245,pleasant,1,584,pleasant7.jpg
927208245,unpleasant,1,638,unpleasant12.jpg
927208245,white,1,769,white3.png
927208245,pleasant,1,640,pleasant7.jpg
927208245,neutral,1,483,N089.bmp
927208245,neutral,1,582,N081.bmp
927208245,unpleasant,0,800,unpleasant10.jpg
927208245,white,1,653,white4.png
927208245,neutral,1,704,N039.bmp
927208245,pleasant,1,522,pleasant1.jpg
927208245,neutral,1,466,N061.bmp
927208245,neutral,1,510,N092.bmp
927208245,pleasant,1,536,pleasant3.jpg
927208245,unpleasant,1,535,unpleasant9.jpg
927208245,white,1,606,white3.png
927208245,neutral,1,564,N011.bmp
927208245,neutral,1,676,N020.bmp
927208245,pleasant,1,502,pleasant10.jpg
927208245,pleasant,1,479,pleasant1.jpg
927208245,unpleasant,1,433,unpleasant10.jpg
927208245,neutral,1,405,N101.bmp
927208245,neutral,1,595,N011.bmp
927208245,pleasant,1,481,pleasant10.jpg
927208245,unpleasant,1,451,unpleasant12.jpg
927208245,pleasant,1,614,pleasant3.jpg
927208245,pleasant,1,442,pleasant7.jpg
927208245,neutral,1,462,N106.bmp
927208245,neutral,1,409,N092.bmp
927208245,neutral,1,632,N061.bmp
927208245,pleasant,1,476,pleasant1.jpg
927208245,black,1,502,black1.png
927208245,pleasant,1,488,pleasant7.jpg
927208245,pleasant,1,465,pleasant10.jpg
927208245,unpleasant,1,532,unpleasant11.jpg
927208245,black,1,396,black2.png
927208245,neutral,1,586,N089.bmp
927208245,unpleasant,1,585,unpleasant9.jpg
927208245,unpleasant,1,414,unpleasant9.jpg
927208245,neutral,0,451,N020.bmp
927208245,pleasant,1,534,pleasant3.jpg
927208245,neutral,0,574,N102.bmp
927208245,black,0,541,black3.png
927208245,white,1,589,white4.png
927208245,unpleasant,0,796,unpleasant10.jpg
927208245,white,1,452,white1.png
927208245,pleasant,1,559,pleasant10.jpg
927208245,neutral,1,406,N039.bmp
927208245,unpleasant,0,596,unpleasant11.jpg
927208245,unpleasant,0,356,unpleasant12.jpg
927208245,pleasant,1,438,pleasant1.jpg
927208245,black,1,353,black4.png
927208245,neutral,0,601,N081.bmp
927208245,unpleasant,1,447,unpleasant10.jpg
927208245,neutral,0,426,N081.bmp
927208245,black,1,463,black3.png
927208245,white,1,483,white2.png
927208245,pleasant,1,477,pleasant3.jpg
927208245,neutral,1,456,N106.bmp
927208245,neutral,0,531,N089.bmp
927208245,pleasant,1,364,pleasant7.jpg
927208245,black,1,619,black2.png
927208245,neutral,1,384,N061.bmp
927208245,unpleasant,1,527,unpleasant12.jpg
927208245,neutral,1,438,N102.bmp
927208245,black,1,563,black1.png
927208245,pleasant,1,555,pleasant3.jpg
927208245,unpleasant,1,657,unpleasant9.jpg
927208245,unpleasant,1,564,unpleasant11.jpg
927208245,neutral,1,514,N011.bmp
927208245,pleasant,1,476,pleasant7.jpg
927208245,unpleasant,0,486,unpleasant12.jpg
927208245,black,0,523,black4.png
927208245,unpleasant,1,556,unpleasant11.jpg
927208245,pleasant,0,602,pleasant1.jpg
927208245,white,0,594,white1.png
927208245,pleasant,1,568,pleasant10.jpg
927208245,neutral,1,534,N020.bmp
927208245,neutral,0,590,N039.bmp
927208245,white,1,525,white4.png
927208245,unpleasant,1,574,unpleasant9.jpg
927208245,neutral,1,580,N092.bmp
927208245,unpleasant,1,651,unpleasant10.jpg
927208245,black,1,494,black4.png
927208245,pleasant,0,656,pleasant3.jpg
927208245,white,1,517,white2.png
927208245,pleasant,1,567,pleasant10.jpg
927208245,white,1,532,white3.png
927208245,unpleasant,1,741,unpleasant10.jpg
927208245,neutral,1,541,N101.bmp
927208245,unpleasant,1,701,unpleasant9.jpg
927208245,black,1,461,black1.png
927208245,black,0,553,black2.png
927208245,white,0,457,white3.png
927208245,neutral,1,468,N039.bmp
927208245,neutral,1,712,N020.bmp
927208245,neutral,1,513,N101.bmp
927208245,pleasant,1,691,pleasant1.jpg
927208245,neutral,1,572,N106.bmp
927208245,white,1,587,white4.png
927208245,neutral,1,513,N102.bmp
927208245,unpleasant,0,800,unpleasant12.jpg
927208245,pleasant,0,507,pleasant7.jpg
927208245,black,1,511,black3.png
927208245,pleasant,1,640,pleasant3.jpg
927208245,neutral,1,635,N011.bmp
927208245,pleasant,1,760,pleasant10.jpg
927208245,neutral,1,454,N092.bmp
927208245,unpleasant,0,578,unpleasant11.jpg
927208245,unpleasant,0,786,unpleasant11.jpg
927208245,unpleasant,1,578,unpleasant9.jpg
927208245,unpleasant,1,585,unpleasant10.jpg
927208245,black,1,486,black4.png
927208245,neutral,1,552,N061.bmp
927208245,unpleasant,1,592,unpleasant12.jpg
927208245,unpleasant,1,565,unpleasant9.jpg
927208245,neutral,1,532,N089.bmp
927208245,pleasant,0,629,pleasant7.jpg
927208245,pleasant,1,452,pleasant1.jpg
927208245,white,1,422,white2.png
927208245,unpleasant,1,580,unpleasant10.jpg
927208245,pleasant,1,466,pleasant10.jpg
927208245,neutral,1,469,N081.bmp
927208245,pleasant,1,471,pleasant7.jpg
927208245,pleasant,1,401,pleasant1.jpg
927208245,pleasant,1,446,pleasant3.jpg
927208245,neutral,1,522,N106.bmp
927208245,black,1,555,black2.png
927208245,neutral,1,491,N011.bmp
927208245,unpleasant,0,309,unpleasant12.jpg
927208245,pleasant,1,409,pleasant7.jpg
927208245,neutral,1,429,N092.bmp
927208245,neutral,1,418,N081.bmp
927208245,neutral,1,439,N061.bmp
927208245,neutral,1,540,N039.bmp
927208245,unpleasant,1,604,unpleasant11.jpg
927208245,pleasant,1,521,pleasant1.jpg
927208245,neutral,1,505,N102.bmp
927208245,neutral,1,443,N101.bmp
927208245,neutral,1,511,N089.bmp
927208245,neutral,1,449,N020.bmp
927208245,pleasant,1,606,pleasant3.jpg
927208245,white,1,547,white1.png
927208245,neutral,0,747,N020.bmp
927208245,unpleasant,1,603,unpleasant10.jpg
927208245,neutral,1,383,N101.bmp
927208245,unpleasant,1,566,unpleasant12.jpg
927208245,unpleasant,1,668,unpleasant11.jpg
927208245,black,1,390,black3.png
927208245,unpleasant,1,549,unpleasant9.jpg
927208245,black,1,444,black1.png
927208245,neutral,0,464,N061.bmp
927208245,unpleasant,0,492,unpleasant9.jpg
927208245,neutral,1,121,N102.bmp
927208245,neutral,1,746,N039.bmp
927208245,neutral,1,498,N106.bmp
927208245,white,1,597,white2.png
927208245,unpleasant,1,675,unpleasant10.jpg
927208245,pleasant,1,293,pleasant10.jpg
927208245,unpleasant,1,542,unpleasant12.jpg
927208245,black,1,429,black3.png
927208245,pleasant,1,587,pleasant1.jpg
927208245,white,1,520,white1.png
927208245,unpleasant,1,561,unpleasant11.jpg
927208245,pleasant,1,424,pleasant7.jpg
927208245,pleasant,1,420,pleasant10.jpg
927208245,black,1,536,black1.png
927208245,unpleasant,1,448,unpleasant10.jpg
927208245,unpleasant,1,427,unpleasant12.jpg
927208245,unpleasant,1,368,unpleasant9.jpg
927208245,unpleasant,1,518,unpleasant11.jpg
927208245,white,1,494,white4.png
927208245,unpleasant,1,513,unpleasant9.jpg
927208245,unpleasant,1,449,unpleasant11.jpg
136535858,unpleasant,0,800,unpleasant12.jpg
136535858,neutral,0,512,N061.bmp
136535858,neutral,0,467,N106.bmp
136535858,pleasant,1,575,pleasant3.jpg
136535858,unpleasant,1,566,unpleasant9.jpg
136535858,unpleasant,1,542,unpleasant9.jpg
136535858,white,1,654,white3.png
136535858,neutral,0,411,N102.bmp
136535858,neutral,0,753,N039.bmp
136535858,pleasant,1,442,pleasant7.jpg
136535858,unpleasant,1,671,unpleasant11.jpg
136535858,unpleasant,1,666,unpleasant10.jpg
136535858,neutral,0,573,N081.bmp
136535858,neutral,0,502,N011.bmp
136535858,neutral,0,480,N020.bmp
136535858,unpleasant,1,508,unpleasant12.jpg
136535858,pleasant,1,542,pleasant10.jpg
136535858,unpleasant,1,543,unpleasant10.jpg
136535858,unpleasant,1,704,unpleasant12.jpg
136535858,neutral,1,545,N092.bmp
136535858,neutral,1,579,N089.bmp
136535858,neutral,1,635,N101.bmp
136535858,neutral,1,672,N081.bmp
136535858,unpleasant,1,572,unpleasant9.jpg
136535858,white,1,676,white2.png
136535858,neutral,0,800,N092.bmp
136535858,neutral,1,617,N020.bmp
136535858,pleasant,0,543,pleasant7.jpg
136535858,neutral,0,604,N089.bmp
136535858,unpleasant,1,577,unpleasant11.jpg
136535858,unpleasant,1,465,unpleasant11.jpg
136535858,pleasant,0,509,pleasant3.jpg
136535858,black,0,658,black2.png
136535858,neutral,0,800,N101.bmp
136535858,unpleasant,1,664,unpleasant12.jpg
136535858,white,1,796,white4.png
136535858,pleasant,1,476,pleasant1.jpg
136535858,neutral,0,695,N011.bmp
136535858,pleasant,1,634,pleasant10.jpg
136535858,pleasant,1,567,pleasant3.jpg
136535858,neutral,0,702,N039.bmp
136535858,unpleasant,1,545,unpleasant9.jpg
136535858,unpleasant,1,505,unpleasant10.jpg
136535858,unpleasant,1,540,unpleasant10.jpg
136535858,pleasant,1,596,pleasant7.jpg
136535858,unpleasant,1,579,unpleasant9.jpg
136535858,neutral,0,586,N106.bmp
136535858,neutral,1,554,N102.bmp
136535858,pleasant,1,658,pleasant1.jpg
136535858,pleasant,1,510,pleasant10.jpg
136535858,pleasant,1,504,pleasant3.jpg
136535858,neutral,0,722,N061.bmp
136535858,neutral,0,460,N011.bmp
136535858,pleasant,1,513,pleasant7.jpg
136535858,neutral,0,563,N106.bmp
136535858,pleasant,1,571,pleasant1.jpg
136535858,pleasant,1,578,pleasant3.jpg
136535858,pleasant,1,634,pleasant10.jpg
136535858,unpleasant,1,647,unpleasant12.jpg
136535858,unpleasant,1,587,unpleasant11.jpg
136535858,black,1,610,black1.png
136535858,black,1,440,black3.png
136535858,white,1,414,white1.png
136535858,unpleasant,0,429,unpleasant12.jpg
136535858,pleasant,1,533,pleasant1.jpg
136535858,white,0,638,white1.png
136535858,unpleasant,1,571,unpleasant10.jpg
136535858,neutral,0,675,N092.bmp
136535858,pleasant,1,542,pleasant7.jpg
136535858,black,0,583,black4.png
136535858,black,1,623,black4.png
136535858,unpleasant,1,605,unpleasant11.jpg
136535858,neutral,0,707,N081.bmp
136535858,black,0,533,black3.png
136535858,unpleasant,1,655,unpleasant9.jpg
136535858,pleasant,1,483,pleasant3.jpg
136535858,pleasant,1,406,pleasant1.jpg
136535858,pleasant,1,500,pleasant7.jpg
136535858,neutral,0,581,N089.bmp
136535858,neutral,0,589,N020.bmp
136535858,neutral,0,685,N039.bmp
136535858,white,0,784,white4.png
136535858,neutral,0,528,N101.bmp
136535858,unpleasant,1,450,unpleasant11.jpg
136535858,white,0,645,white2.png
136535858,pleasant,1,523,pleasant10.jpg
136535858,neutral,0,572,N102.bmp
136535858,black,0,548,black1.png
136535858,neutral,0,669,N061.bmp
136535858,unpleasant,0,585,unpleasant9.jpg
136535858,unpleasant,1,627,unpleasant10.jpg
136535858,unpleasant,1,537,unpleasant12.jpg
136535858,neutral,0,570,N011.bmp
136535858,black,0,449,black2.png
136535858,neutral,0,550,N039.bmp
136535858,black,1,678,black3.png
136535858,neutral,0,587,N101.bmp
136535858,pleasant,1,610,pleasant3.jpg
136535858,pleasant,1,633,pleasant7.jpg
136535858,neutral,0,581,N061.bmp
136535858,neutral,1,493,N102.bmp
136535858,unpleasant,1,560,unpleasant11.jpg
136535858,pleasant,1,576,pleasant10.jpg
136535858,neutral,0,583,N081.bmp
136535858,white,0,583,white3.png
136535858,black,0,670,black4.png
136535858,neutral,1,490,N089.bmp
136535858,pleasant,1,638,pleasant1.jpg
136535858,unpleasant,1,570,unpleasant9.jpg
136535858,pleasant,1,545,pleasant3.jpg
136535858,unpleasant,1,618,unpleasant10.jpg
136535858,neutral,1,639,N092.bmp
136535858,white,0,597,white2.png
136535858,black,1,500,black2.png
136535858,pleasant,1,558,pleasant7.jpg
136535858,unpleasant,1,695,unpleasant12.jpg
136535858,white,1,473,white4.png
136535858,pleasant,1,413,pleasant1.jpg
136535858,pleasant,1,595,pleasant10.jpg
136535858,pleasant,1,522,pleasant1.jpg
136535858,neutral,0,691,N106.bmp
136535858,neutral,1,599,N020.bmp
136535858,pleasant,1,574,pleasant7.jpg
136535858,black,0,510,black1.png
136535858,white,1,344,white1.png
136535858,pleasant,1,530,pleasant3.jpg
136535858,pleasant,1,531,pleasant10.jpg
136535858,black,1,420,black2.png
136535858,unpleasant,0,618,unpleasant9.jpg
136535858,unpleasant,1,627,unpleasant11.jpg
136535858,neutral,1,536,N039.bmp
136535858,unpleasant,0,601,unpleasant12.jpg
136535858,neutral,0,587,N106.bmp
136535858,unpleasant,1,730,unpleasant10.jpg
136535858,neutral,0,800,N092.bmp
136535858,unpleasant,1,501,unpleasant9.jpg
136535858,neutral,0,567,N089.bmp
136535858,neutral,1,655,N011.bmp
136535858,unpleasant,1,507,unpleasant11.jpg
136535858,neutral,0,550,N102.bmp
136535858,neutral,0,478,N081.bmp
136535858,unpleasant,0,555,unpleasant10.jpg
136535858,white,0,518,white3.png
136535858,unpleasant,1,624,unpleasant12.jpg
136535858,unpleasant,1,469,unpleasant12.jpg
136535858,pleasant,1,584,pleasant7.jpg
136535858,unpleasant,1,567,unpleasant11.jpg
136535858,neutral,0,654,N101.bmp
136535858,neutral,0,443,N061.bmp
136535858,pleasant,1,586,pleasant3.jpg
136535858,pleasant,1,623,pleasant10.jpg
136535858,black,0,604,black4.png
136535858,black,1,555,black1.png
136535858,black,1,563,black3.png
136535858,white,0,555,white3.png
136535858,neutral,1,501,N020.bmp
136535858,unpleasant,0,800,unpleasant10.jpg
136535858,pleasant,1,568,pleasant1.jpg
136535858,neutral,0,576,N081.bmp
136535858,unpleasant,1,600,unpleasant9.jpg
136535858,white,0,574,white4.png
136535858,unpleasant,0,550,unpleasant12.jpg
136535858,pleasant,1,537,pleasant1.jpg
136535858,unpleasant,1,626,unpleasant10.jpg
136535858,unpleasant,1,671,unpleasant11.jpg
136535858,neutral,0,651,N061.bmp
136535858,unpleasant,0,544,unpleasant9.jpg
136535858,pleasant,0,515,pleasant3.jpg
136535858,black,0,657,black4.png
136535858,black,0,550,black2.png
136535858,unpleasant,0,462,unpleasant12.jpg
136535858,pleasant,1,597,pleasant7.jpg
136535858,black,0,572,black3.png
136535858,unpleasant,1,555,unpleasant10.jpg
136535858,black,0,460,black1.png
136535858,neutral,0,633,N020.bmp
136535858,pleasant,1,606,pleasant10.jpg
136535858,pleasant,1,628,pleasant7.jpg
136535858,unpleasant,1,473,unpleasant9.jpg
136535858,black,0,628,black2.png
136535858,unpleasant,0,523,unpleasant11.jpg
136535858,neutral,0,623,N092.bmp
136535858,neutral,0,605,N101.bmp
136535858,unpleasant,1,644,unpleasant9.jpg
136535858,unpleasant,1,792,unpleasant10.jpg
136535858,neutral,1,583,N089.bmp
136535858,neutral,0,800,N102.bmp
136535858,pleasant,1,584,pleasant10.jpg
136535858,black,0,598,black4.png
136535858,pleasant,1,510,pleasant3.jpg
136535858,pleasant,1,528,pleasant1.jpg
136535858,white,1,489,white2.png
136535858,neutral,1,540,N011.bmp
136535858,unpleasant,1,606,unpleasant11.jpg
136535858,pleasant,1,436,pleasant3.jpg
136535858,white,1,728,white1.png
136535858,unpleasant,1,619,unpleasant12.jpg
136535858,neutral,1,632,N039.bmp
136535858,pleasant,1,486,pleasant10.jpg
136535858,neutral,1,480,N106.bmp
136535858,neutral,1,492,N039.bmp
136535858,unpleasant,1,488,unpleasant9.jpg
136535858,neutral,0,618,N061.bmp
136535858,pleasant,1,489,pleasant1.jpg
136535858,unpleasant,1,612,unpleasant12.jpg
136535858,unpleasant,1,601,unpleasant11.jpg
136535858,neutral,1,535,N020.bmp
136535858,black,1,584,black1.png
136535858,neutral,1,472,N106.bmp
136535858,unpleasant,0,460,unpleasant10.jpg
136535858,pleasant,1,675,pleasant7.jpg
136535858,white,0,534,white1.png
136535858,white,1,448,white2.png
136535858,neutral,1,573,N081.bmp
136535858,unpleasant,1,557,unpleasant9.jpg
136535858,pleasant,1,589,pleasant3.jpg
136535858,neutral,1,564,N102.bmp
136535858,neutral,1,484,N101.bmp
136535858,neutral,1,472,N092.bmp
136535858,pleasant,1,580,pleasant10.jpg
136535858,white,1,459,white4.png
136535858,neutral,1,520,N089.bmp
136535858,pleasant,1,650,pleasant1.jpg
136535858,neutral,1,438,N011.bmp
136535858,neutral,1,355,N081.bmp
136535858,black,1,323,black3.png
136535858,white,1,526,white3.png
136535858,white,1,424,white3.png
136535858,pleasant,1,518,pleasant7.jpg
136535858,white,1,479,white2.png
136535858,pleasant,1,635,pleasant10.jpg
136535858,pleasant,1,448,pleasant1.jpg
136535858,pleasant,1,452,pleasant7.jpg
136535858,white,1,313,white4.png
136535858,pleasant,1,555,pleasant3.jpg
136535858,neutral,1,411,N020.bmp
136535858,neutral,1,434,N101.bmp
136535858,black,1,503,black2.png
136535858,pleasant,1,386,pleasant10.jpg
136535858,pleasant,1,401,pleasant7.jpg
136535858,neutral,1,390,N089.bmp
136535858,white,1,374,white1.png
136535858,unpleasant,0,382,unpleasant11.jpg
136535858,unpleasant,1,552,unpleasant10.jpg
136535858,neutral,1,504,N102.bmp
136535858,white,1,428,white2.png
136535858,unpleasant,1,562,unpleasant12.jpg
136535858,pleasant,1,729,pleasant1.jpg
136535858,pleasant,1,482,pleasant3.jpg
136535858,unpleasant,0,454,unpleasant10.jpg
275419729,neutral,0,800,N102.bmp
275419729,black,1,774,black4.png
275419729,black,1,571,black1.png
275419729,pleasant,1,626,pleasant10.jpg
275419729,neutral,0,556,N106.bmp
275419729,pleasant,1,574,pleasant3.jpg
275419729,neutral,0,596,N081.bmp
275419729,unpleasant,1,521,unpleasant12.jpg
275419729,black,1,543,black3.png
275419729,neutral,0,800,N061.bmp
275419729,unpleasant,1,508,unpleasant11.jpg
275419729,pleasant,0,519,pleasant1.jpg
275419729,unpleasant,1,473,unpleasant12.jpg
275419729,neutral,1,679,N092.bmp
275419729,pleasant,1,483,pleasant10.jpg
275419729,unpleasant,1,538,unpleasant11.jpg
275419729,white,1,484,white1.png
275419729,neutral,1,459,N089.bmp
275419729,black,1,515,black2.png
275419729,unpleasant,1,757,unpleasant10.jpg
275419729,white,1,466,white2.png
275419729,unpleasant,1,551,unpleasant9.jpg
275419729,neutral,1,568,N011.bmp
275419729,white,0,560,white3.png
275419729,unpleasant,1,472,unpleasant12.jpg
275419729,unpleasant,1,489,unpleasant11.jpg
275419729,pleasant,1,455,pleasant3.jpg
275419729,neutral,0,477,N039.bmp
275419729,white,1,607,white4.png
275419729,pleasant,1,481,pleasant7.jpg
275419729,neutral,1,556,N020.bmp
275419729,neutral,1,485,N101.bmp
275419729,black,1,501,black2.png
275419729,pleasant,1,579,pleasant10.jpg
275419729,neutral,0,545,N092.bmp
275419729,pleasant,1,503,pleasant3.jpg
275419729,unpleasant,1,533,unpleasant10.jpg
275419729,unpleasant,1,570,unpleasant9.jpg
275419729,white,1,386,white3.png
275419729,neutral,1,609,N011.bmp
275419729,black,1,495,black1.png
275419729,pleasant,1,455,pleasant7.jpg
275419729,neutral,0,699,N081.bmp
275419729,neutral,0,614,N039.bmp
275419729,black,1,540,black3.png
275419729,pleasant,1,537,pleasant1.jpg
275419729,neutral,1,536,N020.bmp
275419729,unpleasant,1,497,unpleasant11.jpg
275419729,neutral,1,567,N106.bmp
275419729,neutral,1,509,N101.bmp
275419729,pleasant,1,533,pleasant7.jpg
275419729,pleasant,1,508,pleasant10.jpg
275419729,neutral,1,527,N089.bmp
275419729,unpleasant,1,587,unpleasant10.jpg
275419729,white,0,527,white4.png
275419729,unpleasant,1,525,unpleasant9.jpg
275419729,black,0,421,black4.png
275419729,neutral,0,538,N061.bmp
275419729,unpleasant,1,464,unpleasant12.jpg
275419729,pleasant,1,554,pleasant1.jpg
275419729,neutral,1,586,N102.bmp
275419729,white,1,412,white1.png
275419729,pleasant,1,527,pleasant3.jpg
275419729,neutral,0,575,N011.bmp
275419729,neutral,0,618,N081.bmp
275419729,pleasant,1,521,pleasant1.jpg
275419729,neutral,0,522,N039.bmp
275419729,unpleasant,1,468,unpleasant10.jpg
275419729,neutral,1,550,N106.bmp
275419729,neutral,1,446,N061.bmp
275419729,white,1,449,white2.png
275419729,neutral,1,509,N089.bmp
275419729,pleasant,1,441,pleasant3.jpg
275419729,neutral,0,442,N102.bmp
275419729,pleasant,0,518,pleasant10.jpg
275419729,neutral,1,549,N101.bmp
275419729,pleasant,1,411,pleasant7.jpg
275419729,neutral,1,605,N092.bmp
275419729,white,1,400,white1.png
275419729,neutral,1,467,N020.bmp
275419729,unpleasant,0,423,unpleasant12.jpg
275419729,pleasant,1,576,pleasant10.jpg
275419729,pleasant,1,668,pleasant7.jpg
275419729,unpleasant,1,531,unpleasant9.jpg
275419729,neutral,1,564,N061.bmp
275419729,black,1,522,black4.png
275419729,neutral,1,484,N101.bmp
275419729,neutral,1,614,N092.bmp
275419729,neutral,1,478,N102.bmp
275419729,pleasant,1,515,pleasant3.jpg
275419729,unpleasant,1,546,unpleasant11.jpg
275419729,neutral,1,542,N020.bmp
275419729,pleasant,1,528,pleasant1.jpg
275419729,black,0,568,black2.png
275419729,pleasant,1,525,pleasant7.jpg
275419729,white,1,576,white4.png
275419729,black,1,520,black1.png
275419729,pleasant,1,639,pleasant1.jpg
275419729,unpleasant,1,496,unpleasant10.jpg
275419729,black,0,654,black3.png
275419729,neutral,0,595,N081.bmp
275419729,unpleasant,1,544,unpleasant12.jpg
275419729,neutral,1,547,N039.bmp
275419729,unpleasant,1,570,unpleasant9.jpg
275419729,neutral,1,599,N089.bmp
275419729,unpleasant,0,455,unpleasant11.jpg
275419729,pleasant,1,570,pleasant3.jpg
275419729,neutral,0,646,N011.bmp
275419729,black,0,592,black3.png
275419729,pleasant,1,535,pleasant10.jpg
275419729,neutral,0,602,N106.bmp
275419729,white,0,511,white3.png
275419729,pleasant,1,552,pleasant3.jpg
275419729,pleasant,1,524,pleasant7.jpg
275419729,black,1,475,black2.png
275419729,neutral,1,630,N106.bmp
275419729,unpleasant,1,527,unpleasant9.jpg
275419729,unpleasant,1,565,unpleasant12.jpg
275419729,white,1,540,white2.png
275419729,white,1,686,white2.png
275419729,neutral,1,604,N039.bmp
275419729,pleasant,1,456,pleasant10.jpg
275419729,unpleasant,1,504,unpleasant11.jpg
275419729,neutral,1,454,N101.bmp
275419729,unpleasant,1,559,unpleasant10.jpg
275419729,pleasant,1,547,pleasant1.jpg
275419729,unpleasant,1,476,unpleasant9.jpg
275419729,white,1,439,white1.png
275419729,black,1,436,black1.png
275419729,unpleasant,1,484,unpleasant10.jpg
275419729,neutral,1,538,N089.bmp
275419729,pleasant,1,545,pleasant3.jpg
275419729,unpleasant,1,618,unpleasant12.jpg
275419729,unpleasant,1,534,unpleasant11.jpg
275419729,neutral,1,533,N020.bmp
275419729,white,1,467,white4.png
275419729,neutral,1,470,N092.bmp
275419729,pleasant,1,492,pleasant10.jpg
275419729,neutral,0,575,N081.bmp
275419729,unpleasant,1,550,unpleasant10.jpg
275419729,pleasant,1,479,pleasant7.jpg
275419729,neutral,1,503,N102.bmp
275419729,pleasant,1,486,pleasant1.jpg
275419729,unpleasant,1,608,unpleasant11.jpg
275419729,unpleasant,1,497,unpleasant12.jpg
275419729,unpleasant,1,428,unpleasant9.jpg
275419729,pleasant,1,557,pleasant10.jpg
275419729,unpleasant,1,615,unpleasant11.jpg
275419729,black,1,510,black4.png
275419729,unpleasant,1,543,unpleasant12.jpg
275419729,pleasant,1,514,pleasant3.jpg
275419729,neutral,0,539,N011.bmp
275419729,unpleasant,1,493,unpleasant10.jpg
275419729,neutral,0,623,N061.bmp
275419729,pleasant,1,452,pleasant7.jpg
275419729,pleasant,1,513,pleasant1.jpg
275419729,white,1,566,white3.png
275419729,black,1,427,black2.png
275419729,pleasant,1,450,pleasant1.jpg
275419729,pleasant,1,506,pleasant7.jpg
275419729,unpleasant,1,564,unpleasant9.jpg
275419729,neutral,0,799,N106.bmp
275419729,unpleasant,1,466,unpleasant11.jpg
275419729,pleasant,1,558,pleasant10.jpg
275419729,unpleasant,1,623,unpleasant9.jpg
275419729,black,1,462,black3.png
275419729,neutral,1,559,N092.bmp
275419729,unpleasant,1,605,unpleasant12.jpg
275419729,pleasant,1,559,pleasant3.jpg
275419729,white,1,632,white1.png
275419729,pleasant,1,484,pleasant3.jpg
275419729,pleasant,1,550,pleasant7.jpg
275419729,unpleasant,1,441,unpleasant10.jpg
275419729,unpleasant,1,457,unpleasant10.jpg
275419729,unpleasant,1,462,unpleasant9.jpg
275419729,unpleasant,1,413,unpleasant12.jpg
275419729,neutral,1,500,N020.bmp
275419729,pleasant,1,457,pleasant1.jpg
275419729,neutral,1,509,N081.bmp
275419729,neutral,1,568,N102.bmp
275419729,black,1,494,black1.png
275419729,pleasant,1,597,pleasant10.jpg
275419729,neutral,0,478,N039.bmp
275419729,pleasant,1,488,pleasant3.jpg
275419729,unpleasant,1,564,unpleasant11.jpg
275419729,pleasant,0,540,pleasant10.jpg
275419729,neutral,1,452,N089.bmp
275419729,pleasant,1,491,pleasant1.jpg
275419729,pleasant,1,483,pleasant7.jpg
275419729,neutral,1,561,N101.bmp
275419729,white,1,545,white2.png
275419729,neutral,1,596,N011.bmp
275419729,neutral,1,463,N061.bmp
275419729,pleasant,1,611,pleasant1.jpg
275419729,pleasant,1,550,pleasant3.jpg
275419729,black,1,419,black4.png
275419729,black,1,364,black4.png
275419729,pleasant,1,599,pleasant10.jpg
275419729,unpleasant,1,478,unpleasant10.jpg
275419729,black,0,800,black3.png
275419729,pleasant,1,486,pleasant7.jpg
275419729,pleasant,1,485,pleasant10.jpg
275419729,white,1,426,white4.png
275419729,pleasant,1,407,pleasant7.jpg
275419729,unpleasant,1,459,unpleasant11.jpg
275419729,neutral,1,518,N039.bmp
275419729,white,1,521,white3.png
275419729,white,1,382,white3.png
275419729,unpleasant,1,441,unpleasant9.jpg
275419729,pleasant,1,443,pleasant3.jpg
275419729,neutral,1,496,N106.bmp
275419729,unpleasant,0,455,unpleasant12.jpg
275419729,unpleasant,1,474,unpleasant10.jpg
275419729,unpleasant,1,464,unpleasant9.jpg
275419729,pleasant,1,506,pleasant1.jpg
275419729,neutral,0,568,N061.bmp
275419729,neutral,0,791,N101.bmp
275419729,neutral,0,475,N092.bmp
275419729,pleasant,1,550,pleasant1.jpg
275419729,white,1,479,white2.png
275419729,unpleasant,1,591,unpleasant12.jpg
275419729,neutral,1,616,N020.bmp
275419729,unpleasant,1,559,unpleasant11.jpg
275419729,unpleasant,1,606,unpleasant10.jpg
275419729,neutral,0,685,N102.bmp
275419729,neutral,0,449,N011.bmp
275419729,unpleasant,1,575,unpleasant9.jpg
275419729,unpleasant,1,471,unpleasant11.jpg
275419729,pleasant,1,629,pleasant3.jpg
275419729,pleasant,1,428,pleasant7.jpg
275419729,unpleasant,0,404,unpleasant12.jpg
275419729,neutral,0,504,N081.bmp
275419729,unpleasant,1,500,unpleasant9.jpg
275419729,black,0,688,black1.png
275419729,white,0,417,white1.png
275419729,pleasant,1,608,pleasant10.jpg
275419729,unpleasant,1,698,unpleasant12.jpg
275419729,white,1,481,white4.png
275419729,neutral,1,592,N089.bmp
275419729,unpleasant,1,481,unpleasant10.jpg
275419729,neutral,0,671,N106.bmp
275419729,pleasant,0,429,pleasant7.jpg
275419729,neutral,0,618,N081.bmp
275419729,black,0,800,black2.png
275419729,black,0,588,black4.png
275419729,unpleasant,1,447,unpleasant11.jpg
275419729,neutral,0,533,N011.bmp
275419729,unpleasant,1,385,unpleasant12.jpg
275419729,black,0,428,black2.png
275419729,pleasant,1,569,pleasant10.jpg
702310898,white,1,538,white2.png
702310898,pleasant,1,499,pleasant7.jpg
702310898,black,1,553,black2.png
702310898,pleasant,1,523,pleasant10.jpg
702310898,pleasant,1,441,pleasant3.jpg
702310898,pleasant,1,409,pleasant7.jpg
702310898,unpleasant,1,448,unpleasant12.jpg
702310898,neutral,0,325,N081.bmp
702310898,neutral,1,605,N089.bmp
702310898,pleasant,1,474,pleasant10.jpg
702310898,unpleasant,0,420,unpleasant10.jpg
702310898,pleasant,1,499,pleasant1.jpg
702310898,white,0,611,white4.png
702310898,neutral,0,706,N011.bmp
702310898,pleasant,1,583,pleasant10.jpg
702310898,pleasant,1,467,pleasant3.jpg
702310898,pleasant,1,526,pleasant7.jpg
702310898,pleasant,1,455,pleasant1.jpg
702310898,unpleasant,0,405,unpleasant9.jpg
702310898,unpleasant,1,608,unpleasant11.jpg
702310898,unpleasant,1,788,unpleasant12.jpg
702310898,black,1,713,black1.png
702310898,neutral,0,800,N106.bmp
702310898,black,1,725,black4.png
702310898,pleasant,1,492,pleasant7.jpg
702310898,pleasant,1,505,pleasant10.jpg
702310898,neutral,1,577,N092.bmp
702310898,neutral,1,684,N039.bmp
702310898,pleasant,1,473,pleasant1.jpg
702310898,neutral,1,594,N101.bmp
702310898,neutral,1,543,N061.bmp
702310898,unpleasant,1,592,unpleasant10.jpg
702310898,black,1,746,black3.png
702310898,pleasant,1,685,pleasant3.jpg
702310898,white,1,467,white1.png
702310898,pleasant,1,668,pleasant7.jpg
702310898,unpleasant,1,713,unpleasant9.jpg
702310898,neutral,0,652,N102.bmp
702310898,white,1,612,white3.png
702310898,unpleasant,1,708,unpleasant11.jpg
702310898,neutral,1,648,N020.bmp
702310898,pleasant,1,535,pleasant10.jpg
702310898,neutral,1,544,N039.bmp
702310898,neutral,1,497,N092.bmp
702310898,black,1,523,black1.png
702310898,neutral,1,607,N089.bmp
702310898,neutral,1,546,N101.bmp
702310898,neutral,1,513,N061.bmp
702310898,neutral,1,580,N106.bmp
702310898,white,1,610,white1.png
702310898,pleasant,1,593,pleasant3.jpg
702310898,unpleasant,0,447,unpleasant10.jpg
702310898,unpleasant,1,515,unpleasant12.jpg
702310898,unpleasant,1,529,unpleasant11.jpg
702310898,unpleasant,1,662,unpleasant12.jpg
702310898,unpleasant,1,630,unpleasant9.jpg
702310898,pleasant,1,450,pleasant1.jpg
702310898,pleasant,1,468,pleasant10.jpg
702310898,unpleasant,1,569,unpleasant10.jpg
702310898,unpleasant,1,576,unpleasant10.jpg
702310898,neutral,0,551,N081.bmp
702310898,unpleasant,0,517,unpleasant12.jpg
702310898,neutral,0,800,N011.bmp
702310898,pleasant,1,530,pleasant7.jpg
702310898,white,1,519,white2.png
702310898,unpleasant,1,604,unpleasant9.jpg
702310898,black,1,569,black3.png
702310898,white,1,580,white3.png
702310898,neutral,1,723,N102.bmp
702310898,unpleasant,1,693,unpleasant11.jpg
702310898,unpleasant,1,555,unpleasant12.jpg
702310898,unpleasant,1,545,unpleasant9.jpg
702310898,white,1,611,white4.png
702310898,white,1,457,white4.png
702310898,neutral,1,604,N020.bmp
702310898,unpleasant,1,627,unpleasant11.jpg
702310898,black,1,558,black2.png
702310898,neutral,1,518,N101.bmp
702310898,unpleasant,1,666,unpleasant10.jpg
702310898,black,1,591,black4.png
702310898,white,1,514,white1.png
702310898,unpleasant,1,651,unpleasant9.jpg
702310898,unpleasant,1,591,unpleasant11.jpg
702310898,pleasant,1,583,pleasant3.jpg
702310898,pleasant,1,544,pleasant1.jpg
702310898,pleasant,1,600,pleasant3.jpg
702310898,pleasant,1,599,pleasant7.jpg
702310898,black,1,496,black2.png
702310898,white,1,663,white3.png
702310898,black,1,480,black4.png
702310898,neutral,1,684,N011.bmp
702310898,pleasant,1,615,pleasant1.jpg
702310898,black,1,462,black1.png
702310898,pleasant,1,594,pleasant10.jpg
702310898,pleasant,1,442,pleasant7.jpg
702310898,neutral,1,606,N020.bmp
702310898,unpleasant,0,800,unpleasant10.jpg
702310898,neutral,1,652,N092.bmp
702310898,black,1,432,black3.png
702310898,neutral,1,493,N061.bmp
702310898,neutral,1,471,N106.bmp
702310898,neutral,1,498,N081.bmp
702310898,white,1,483,white2.png
702310898,unpleasant,1,651,unpleasant12.jpg
702310898,neutral,1,604,N102.bmp
702310898,pleasant,1,512,pleasant10.jpg
702310898,neutral,1,641,N039.bmp
702310898,neutral,1,527,N089.bmp
702310898,black,1,542,black4.png
702310898,pleasant,1,471,pleasant1.jpg
702310898,unpleasant,1,672,unpleasant9.jpg
702310898,unpleasant,1,521,unpleasant12.jpg
702310898,neutral,1,482,N092.bmp
702310898,black,1,483,black2.png
702310898,neutral,1,452,N061.bmp
702310898,neutral,1,476,N081.bmp
702310898,neutral,1,530,N101.bmp
702310898,neutral,1,541,N106.bmp
702310898,pleasant,1,480,pleasant3.jpg
702310898,neutral,1,547,N102.bmp
702310898,white,1,455,white1.png
702310898,neutral,1,546,N089.bmp
702310898,black,1,589,black3.png
702310898,unpleasant,1,617,unpleasant10.jpg
702310898,unpleasant,1,581,unpleasant11.jpg
702310898,unpleasant,1,631,unpleasant10.jpg
702310898,unpleasant,1,641,unpleasant9.jpg
702310898,pleasant,1,517,pleasant3.jpg
702310898,neutral,1,480,N020.bmp
702310898,neutral,1,517,N011.bmp
702310898,pleasant,1,620,pleasant10.jpg
702310898,neutral,0,719,N039.bmp
702310898,neutral,1,698,N092.bmp
702310898,neutral,1,493,N106.bmp
702310898,pleasant,1,512,pleasant1.jpg
702310898,neutral,1,492,N061.bmp
702310898,pleasant,1,534,pleasant7.jpg
702310898,unpleasant,1,671,unpleasant12.jpg
702310898,pleasant,1,592,pleasant10.jpg
702310898,neutral,1,506,N081.bmp
702310898,unpleasant,1,638,unpleasant11.jpg
702310898,neutral,1,547,N101.bmp
702310898,pleasant,1,553,pleasant3.jpg
702310898,neutral,1,457,N089.bmp
702310898,neutral,1,626,N102.bmp
702310898,unpleasant,1,764,unpleasant12.jpg
702310898,pleasant,1,446,pleasant1.jpg
702310898,pleasant,1,460,pleasant7.jpg
702310898,neutral,1,534,N020.bmp
702310898,unpleasant,1,715,unpleasant11.jpg
702310898,white,1,417,white4.png
702310898,neutral,1,597,N011.bmp
702310898,neutral,1,691,N039.bmp
702310898,neutral,1,630,N102.bmp
702310898,white,1,615,white2.png
702310898,pleasant,1,699,pleasant7.jpg
702310898,neutral,1,481,N020.bmp
702310898,pleasant,1,460,pleasant3.jpg
702310898,unpleasant,1,670,unpleasant10.jpg
702310898,unpleasant,1,573,unpleasant9.jpg
702310898,pleasant,0,800,pleasant10.jpg
702310898,neutral,1,482,N092.bmp
702310898,neutral,1,566,N061.bmp
702310898,unpleasant,1,619,unpleasant12.jpg
702310898,unpleasant,1,631,unpleasant10.jpg
702310898,neutral,1,473,N106.bmp
702310898,pleasant,1,690,pleasant1.jpg
702310898,unpleasant,1,644,unpleasant11.jpg
702310898,unpleasant,1,585,unpleasant9.jpg
702310898,neutral,1,549,N101.bmp
702310898,pleasant,1,613,pleasant1.jpg
702310898,pleasant,1,458,pleasant3.jpg
702310898,black,1,584,black1.png
702310898,white,1,571,white3.png
702310898,pleasant,1,432,pleasant10.jpg
702310898,pleasant,1,471,pleasant7.jpg
702310898,pleasant,1,442,pleasant3.jpg
702310898,neutral,1,342,N089.bmp
702310898,neutral,0,800,N039.bmp
702310898,unpleasant,0,419,unpleasant10.jpg
702310898,white,1,559,white3.png
702310898,pleasant,1,514,pleasant1.jpg
702310898,white,1,589,white2.png
702310898,unpleasant,1,656,unpleasant11.jpg
702310898,unpleasant,0,489,unpleasant12.jpg
702310898,neutral,1,587,N011.bmp
702310898,pleasant,1,490,pleasant7.jpg
702310898,white,1,408,white1.png
702310898,black,1,503,black4.png
702310898,unpleasant,1,610,unpleasant9.jpg
702310898,black,1,658,black1.png
702310898,black,1,471,black3.png
702310898,unpleasant,1,621,unpleasant9.jpg
702310898,pleasant,1,586,pleasant10.jpg
702310898,neutral,1,565,N081.bmp
702310898,unpleasant,1,724,unpleasant12.jpg
702310898,unpleasant,1,643,unpleasant10.jpg
702310898,neutral,1,728,N102.bmp
702310898,neutral,1,484,N039.bmp
702310898,pleasant,1,496,pleasant1.jpg
702310898,neutral,1,545,N101.bmp
702310898,unpleasant,0,543,unpleasant11.jpg
702310898,white,1,512,white4.png
702310898,neutral,1,487,N089.bmp
702310898,pleasant,1,707,pleasant7.jpg
702310898,neutral,1,526,N106.bmp
702310898,neutral,1,622,N011.bmp
702310898,pleasant,1,529,pleasant10.jpg
702310898,unpleasant,1,598,unpleasant10.jpg
702310898,pleasant,1,448,pleasant3.jpg
702310898,unpleasant,0,800,unpleasant11.jpg
702310898,white,1,633,white1.png
702310898,unpleasant,1,714,unpleasant9.jpg
702310898,pleasant,1,483,pleasant3.jpg
702310898,unpleasant,1,685,unpleasant12.jpg
702310898,pleasant,1,449,pleasant1.jpg
702310898,neutral,1,466,N061.bmp
702310898,black,1,413,black2.png
702310898,neutral,1,585,N020.bmp
702310898,unpleasant,1,559,unpleasant10.jpg
702310898,pleasant,1,395,pleasant7.jpg
702310898,neutral,1,550,N092.bmp
702310898,black,1,477,black1.png
702310898,pleasant,1,579,pleasant10.jpg
702310898,unpleasant,1,547,unpleasant12.jpg
702310898,white,1,552,white3.png
702310898,pleasant,1,447,pleasant7.jpg
702310898,unpleasant,1,564,unpleasant9.jpg
702310898,neutral,1,410,N081.bmp
702310898,pleasant,1,606,pleasant10.jpg
702310898,white,1,462,white4.png
702310898,neutral,1,559,N102.bmp
702310898,unpleasant,1,585,unpleasant11.jpg
702310898,black,1,345,black4.png
702310898,white,1,470,white2.png
702310898,unpleasant,1,594,unpleasant12.jpg
702310898,neutral,1,483,N081.bmp
702310898,neutral,1,535,N101.bmp
702310898,pleasant,1,479,pleasant1.jpg
702310898,unpleasant,1,674,unpleasant9.jpg
702310898,pleasant,1,564,pleasant3.jpg
702310898,black,1,498,black3.png
702310898,white,0,800,white1.png
702310898,neutral,1,439,N089.bmp
702310898,black,1,412,black2.png
702310898,pleasant,1,541,pleasant7.jpg
702310898,black,1,468,black1.png
702310898,unpleasant,1,617,unpleasant10.jpg
702310898,unpleasant,0,309,unpleasant11.jpg
702310898,unpleasant,1,612,unpleasant12.jpg
333573261,neutral,0,750,N081.bmp
333573261,neutral,0,470,N039.bmp
333573261,neutral,0,496,N106.bmp
333573261,black,0,572,black3.png
333573261,neutral,0,731,N102.bmp
333573261,unpleasant,1,605,unpleasant11.jpg
333573261,white,0,800,white3.png
333573261,unpleasant,1,611,unpleasant12.jpg
333573261,pleasant,1,551,pleasant3.jpg
333573261,pleasant,1,538,pleasant10.jpg
333573261,black,1,673,black2.png
333573261,unpleasant,1,634,unpleasant12.jpg
333573261,unpleasant,1,622,unpleasant9.jpg
333573261,pleasant,1,540,pleasant3.jpg
333573261,pleasant,1,467,pleasant1.jpg
333573261,unpleasant,1,673,unpleasant10.jpg
333573261,unpleasant,1,684,unpleasant11.jpg
333573261,neutral,1,681,N011.bmp
333573261,black,1,516,black4.png
333573261,pleasant,1,738,pleasant7.jpg
333573261,black,1,576,black1.png
333573261,unpleasant,0,800,unpleasant10.jpg
333573261,neutral,0,579,N020.bmp
333573261,unpleasant,0,669,unpleasant11.jpg
333573261,unpleasant,1,509,unpleasant12.jpg
333573261,pleasant,0,569,pleasant10.jpg
333573261,unpleasant,1,541,unpleasant9.jpg
333573261,neutral,0,800,N101.bmp
333573261,pleasant,1,569,pleasant7.jpg
333573261,black,1,625,black4.png
333573261,neutral,0,541,N061.bmp
333573261,neutral,1,692,N089.bmp
333573261,pleasant,1,604,pleasant1.jpg
333573261,pleasant,0,693,pleasant10.jpg
333573261,black,1,547,black2.png
333573261,black,1,428,black3.png
333573261,neutral,1,512,N092.bmp
333573261,unpleasant,0,525,unpleasant12.jpg
333573261,pleasant,0,444,pleasant3.jpg
333573261,pleasant,1,488,pleasant1.jpg
333573261,unpleasant,1,570,unpleasant11.jpg
333573261,neutral,0,609,N102.bmp
333573261,black,0,800,black1.png
333573261,white,0,473,white4.png
333573261,unpleasant,0,800,unpleasant10.jpg
333573261,neutral,1,447,N081.bmp
333573261,unpleasant,1,429,unpleasant9.jpg
333573261,pleasant,1,481,pleasant7.jpg
333573261,black,0,574,black3.png
333573261,pleasant,1,502,pleasant10.jpg
333573261,unpleasant,1,550,unpleasant11.jpg
333573261,unpleasant,1,545,unpleasant9.jpg
333573261,unpleasant,1,578,unpleasant10.jpg
333573261,pleasant,1,672,pleasant3.jpg
333573261,neutral,1,578,N061.bmp
333573261,unpleasant,0,433,unpleasant12.jpg
333573261,unpleasant,0,502,unpleasant11.jpg
333573261,pleasant,1,566,pleasant10.jpg
333573261,neutral,0,524,N011.bmp
333573261,pleasant,1,653,pleasant7.jpg
333573261,black,0,627,black4.png
333573261,unpleasant,0,540,unpleasant10.jpg
333573261,white,1,700,white2.png
333573261,black,0,564,black2.png
333573261,neutral,0,800,N020.bmp
333573261,neutral,1,532,N092.bmp
333573261,pleasant,1,576,pleasant3.jpg
333573261,pleasant,0,558,pleasant1.jpg
333573261,white,1,599,white1.png
333573261,white,1,377,white1.png
333573261,white,1,347,white2.png
333573261,unpleasant,1,565,unpleasant9.jpg
333573261,unpleasant,0,800,unpleasant12.jpg
333573261,white,1,517,white3.png
333573261,unpleasant,0,685,unpleasant10.jpg
333573261,white,0,562,white4.png
333573261,unpleasant,0,800,unpleasant9.jpg
333573261,black,0,800,black1.png
333573261,unpleasant,1,549,unpleasant11.jpg
333573261,neutral,1,540,N039.bmp
333573261,neutral,1,517,N089.bmp
333573261,pleasant,1,514,pleasant1.jpg
333573261,unpleasant,1,785,unpleasant12.jpg
333573261,neutral,1,408,N101.bmp
333573261,neutral,1,512,N106.bmp
333573261,black,1,603,black2.png
333573261,neutral,1,745,N081.bmp
333573261,pleasant,1,477,pleasant3.jpg
333573261,neutral,1,478,N106.bmp
333573261,neutral,0,347,N011.bmp
333573261,neutral,1,558,N092.bmp
333573261,unpleasant,1,478,unpleasant10.jpg
333573261,neutral,0,518,N101.bmp
333573261,pleasant,1,467,pleasant10.jpg
333573261,pleasant,1,556,pleasant7.jpg
333573261,pleasant,1,434,pleasant7.jpg
333573261,unpleasant,1,537,unpleasant9.jpg
333573261,unpleasant,0,530,unpleasant12.jpg
333573261,neutral,1,698,N061.bmp
333573261,neutral,0,412,N039.bmp
333573261,pleasant,0,737,pleasant3.jpg
333573261,unpleasant,0,530,unpleasant11.jpg
333573261,neutral,0,800,N020.bmp
333573261,unpleasant,1,478,unpleasant12.jpg
333573261,pleasant,0,518,pleasant10.jpg
333573261,unpleasant,1,512,unpleasant9.jpg
333573261,white,1,455,white3.png
333573261,white,1,433,white1.png
333573261,pleasant,1,712,pleasant1.jpg
333573261,pleasant,1,452,pleasant7.jpg
333573261,black,0,677,black4.png
333573261,neutral,1,521,N089.bmp
333573261,neutral,1,620,N102.bmp
333573261,neutral,1,521,N092.bmp
333573261,neutral,0,800,N020.bmp
333573261,black,0,578,black1.png
333573261,neutral,0,800,N011.bmp
333573261,neutral,1,428,N061.bmp
333573261,pleasant,1,484,pleasant1.jpg
333573261,unpleasant,1,602,unpleasant11.jpg
333573261,neutral,1,730,N106.bmp
333573261,neutral,1,444,N039.bmp
333573261,unpleasant,1,738,unpleasant10.jpg
333573261,pleasant,1,588,pleasant10.jpg
333573261,pleasant,1,634,pleasant3.jpg
333573261,pleasant,0,800,pleasant10.jpg
333573261,neutral,1,508,N089.bmp
333573261,white,1,411,white4.png
333573261,pleasant,1,515,pleasant1.jpg
333573261,pleasant,1,513,pleasant7.jpg
333573261,white,1,596,white2.png
333573261,pleasant,1,563,pleasant3.jpg
333573261,pleasant,1,418,pleasant10.jpg
333573261,unpleasant,1,600,unpleasant11.jpg
333573261,pleasant,1,605,pleasant7.jpg
333573261,neutral,0,617,N102.bmp
333573261,black,1,405,black3.png
333573261,neutral,0,598,N101.bmp
333573261,neutral,0,537,N081.bmp
333573261,black,1,537,black4.png
333573261,unpleasant,1,728,unpleasant10.jpg
333573261,neutral,1,403,N089.bmp
333573261,unpleasant,1,565,unpleasant9.jpg
333573261,unpleasant,1,463,unpleasant12.jpg
333573261,neutral,0,639,N101.bmp
333573261,neutral,0,399,N092.bmp
333573261,neutral,0,446,N039.bmp
333573261,pleasant,0,439,pleasant3.jpg
333573261,neutral,1,561,N020.bmp
333573261,unpleasant,0,523,unpleasant9.jpg
333573261,white,1,433,white4.png
333573261,white,1,468,white1.png
333573261,black,0,449,black3.png
333573261,unpleasant,0,565,unpleasant12.jpg
333573261,unpleasant,1,527,unpleasant10.jpg
333573261,white,1,554,white3.png
333573261,unpleasant,0,605,unpleasant11.jpg
333573261,pleasant,1,587,pleasant1.jpg
333573261,neutral,0,528,N081.bmp
333573261,unpleasant,1,569,unpleasant9.jpg
333573261,neutral,0,572,N102.bmp
333573261,pleasant,1,580,pleasant7.jpg
333573261,unpleasant,1,585,unpleasant12.jpg
333573261,neutral,0,623,N061.bmp
333573261,unpleasant,1,649,unpleasant11.jpg
333573261,unpleasant,1,445,unpleasant10.jpg
333573261,black,1,527,black2.png
333573261,neutral,0,724,N011.bmp
333573261,black,1,524,black1.png
333573261,neutral,0,455,N106.bmp
333573261,unpleasant,0,537,unpleasant9.jpg
333573261,pleasant,0,476,pleasant3.jpg
333573261,pleasant,1,659,pleasant1.jpg
333573261,neutral,0,591,N102.bmp
333573261,unpleasant,0,694,unpleasant11.jpg
333573261,pleasant,1,750,pleasant10.jpg
333573261,unpleasant,1,577,unpleasant12.jpg
333573261,pleasant,0,800,pleasant10.jpg
333573261,unpleasant,1,592,unpleasant10.jpg
333573261,pleasant,1,511,pleasant1.jpg
333573261,pleasant,1,632,pleasant3.jpg
333573261,black,1,542,black4.png
333573261,neutral,1,782,N061.bmp
333573261,pleasant,1,505,pleasant7.jpg
333573261,pleasant,1,547,pleasant3.jpg
333573261,unpleasant,1,696,unpleasant12.jpg
333573261,pleasant,1,553,pleasant1.jpg
333573261,unpleasant,1,617,unpleasant11.jpg
333573261,unpleasant,1,563,unpleasant9.jpg
333573261,black,1,662,black3.png
333573261,unpleasant,1,606,unpleasant10.jpg
333573261,white,1,537,white2.png
333573261,unpleasant,1,694,unpleasant11.jpg
333573261,neutral,1,613,N092.bmp
333573261,white,1,681,white1.png
333573261,black,1,538,black2.png
333573261,pleasant,1,688,pleasant7.jpg
333573261,black,1,399,black1.png
333573261,white,1,499,white3.png
333573261,unpleasant,1,579,unpleasant12.jpg
333573261,pleasant,1,674,pleasant10.jpg
333573261,white,1,455,white2.png
333573261,neutral,1,577,N020.bmp
333573261,neutral,1,583,N101.bmp
333573261,unpleasant,1,617,unpleasant9.jpg
333573261,neutral,1,610,N089.bmp
333573261,neutral,0,800,N039.bmp
333573261,black,1,463,black1.png
333573261,pleasant,1,605,pleasant10.jpg
333573261,neutral,0,442,N081.bmp
333573261,pleasant,1,559,pleasant7.jpg
333573261,white,0,405,white4.png
333573261,neutral,0,432,N011.bmp
333573261,pleasant,1,555,pleasant3.jpg
333573261,unpleasant,1,533,unpleasant10.jpg
333573261,neutral,0,500,N106.bmp
333573261,pleasant,1,567,pleasant1.jpg
333573261,pleasant,1,566,pleasant3.jpg
333573261,neutral,0,516,N102.bmp
333573261,pleasant,1,568,pleasant10.jpg
333573261,unpleasant,1,552,unpleasant11.jpg
333573261,white,1,526,white3.png
333573261,pleasant,1,436,pleasant7.jpg
333573261,neutral,0,390,N039.bmp
333573261,pleasant,1,467,pleasant1.jpg
333573261,unpleasant,1,372,unpleasant12.jpg
333573261,neutral,1,491,N020.bmp
333573261,neutral,0,554,N011.bmp
333573261,unpleasant,1,736,unpleasant10.jpg
333573261,pleasant,0,800,pleasant3.jpg
333573261,pleasant,1,435,pleasant10.jpg
333573261,neutral,1,443,N061.bmp
333573261,black,0,534,black3.png
333573261,neutral,1,501,N101.bmp
333573261,pleasant,1,506,pleasant1.jpg
333573261,neutral,1,579,N106.bmp
333573261,neutral,0,360,N081.bmp
333573261,white,1,559,white1.png
333573261,unpleasant,1,598,unpleasant9.jpg
333573261,neutral,0,566,N092.bmp
333573261,unpleasant,1,625,unpleasant9.jpg
333573261,pleasant,0,507,pleasant7.jpg
333573261,neutral,1,680,N089.bmp
333573261,neutral,1,620,N039.bmp
333573261,neutral,0,627,N020.bmp
333573261,unpleasant,1,527,unpleasant10.jpg
333573261,pleasant,1,626,pleasant7.jpg
333573261,neutral,0,496,N089.bmp
333573261,white,0,552,white2.png
333573261,unpleasant,0,607,unpleasant11.jpg
582774425,white,0,783,white3.png
582774425,neutral,0,510,N039.bmp
582774425,pleasant,1,435,pleasant1.jpg
582774425,unpleasant,1,462,unpleasant10.jpg
582774425,pleasant,1,508,pleasant3.jpg
582774425,neutral,0,400,N089.bmp
582774425,neutral,0,431,N011.bmp
582774425,black,1,584,black2.png
582774425,pleasant,1,493,pleasant7.jpg
582774425,neutral,1,526,N101.bmp
582774425,neutral,0,485,N106.bmp
582774425,unpleasant,1,437,unpleasant12.jpg
582774425,pleasant,1,415,pleasant1.jpg
582774425,neutral,0,451,N081.bmp
582774425,pleasant,1,519,pleasant10.jpg
582774425,pleasant,1,563,pleasant3.jpg
582774425,neutral,0,532,N061.bmp
582774425,neutral,0,532,N102.bmp
582774425,neutral,0,537,N020.bmp
582774425,neutral,0,520,N092.bmp
582774425,unpleasant,0,462,unpleasant10.jpg
582774425,pleasant,1,455,pleasant10.jpg
582774425,unpleasant,1,499,unpleasant12.jpg
582774425,neutral,1,459,N020.bmp
582774425,pleasant,1,481,pleasant7.jpg
582774425,black,0,546,black3.png
582774425,neutral,0,481,N011.bmp
582774425,neutral,0,544,N039.bmp
582774425,unpleasant,0,443,unpleasant9.jpg
582774425,white,1,497,white2.png
582774425,neutral,0,580,N102.bmp
582774425,pleasant,1,562,pleasant3.jpg
582774425,neutral,0,558,N089.bmp
582774425,pleasant,1,534,pleasant1.jpg
582774425,pleasant,1,550,pleasant10.jpg
582774425,white,0,499,white1.png
582774425,unpleasant,1,433,unpleasant11.jpg
582774425,pleasant,1,562,pleasant3.jpg
582774425,black,0,453,black1.png
582774425,white,0,491,white4.png
582774425,pleasant,1,536,pleasant7.jpg
582774425,black,0,568,black4.png
582774425,white,0,800,white3.png
582774425,neutral,0,510,N106.bmp
582774425,neutral,0,554,N061.bmp
582774425,pleasant,1,545,pleasant1.jpg
582774425,white,0,504,white2.png
582774425,neutral,1,603,N101.bmp
582774425,black,1,470,black1.png
582774425,pleasant,1,553,pleasant10.jpg
582774425,neutral,1,510,N092.bmp
582774425,pleasant,1,486,pleasant1.jpg
582774425,neutral,0,545,N081.bmp
582774425,pleasant,1,514,pleasant7.jpg
582774425,pleasant,1,537,pleasant3.jpg
582774425,black,0,487,black2.png
582774425,neutral,0,445,N020.bmp
582774425,pleasant,1,500,pleasant7.jpg
582774425,neutral,0,466,N092.bmp
582774425,pleasant,1,521,pleasant1.jpg
582774425,black,0,457,black3.png
582774425,pleasant,1,466,pleasant10.jpg
582774425,unpleasant,1,401,unpleasant12.jpg
582774425,pleasant,1,469,pleasant3.jpg
582774425,unpleasant,1,403,unpleasant9.jpg
582774425,white,1,441,white1.png
582774425,unpleasant,1,554,unpleasant11.jpg
582774425,neutral,1,489,N011.bmp
582774425,neutral,1,505,N061.bmp
582774425,unpleasant,1,516,unpleasant10.jpg
582774425,pleasant,1,444,pleasant10.jpg
582774425,unpleasant,1,522,unpleasant9.jpg
582774425,pleasant,1,484,pleasant1.jpg
582774425,neutral,0,444,N089.bmp
582774425,neutral,0,610,N081.bmp
582774425,unpleasant,1,517,unpleasant12.jpg
582774425,neutral,1,590,N039.bmp
582774425,pleasant,1,426,pleasant3.jpg
582774425,neutral,1,530,N101.bmp
582774425,pleasant,1,494,pleasant7.jpg
582774425,unpleasant,1,430,unpleasant10.jpg
582774425,black,0,519,black4.png
582774425,pleasant,1,530,pleasant10.jpg
582774425,unpleasant,1,572,unpleasant11.jpg
582774425,pleasant,0,402,pleasant7.jpg
582774425,neutral,1,429,N106.bmp
582774425,neutral,0,632,N102.bmp
582774425,white,1,444,white4.png
582774425,unpleasant,1,529,unpleasant9.jpg
582774425,unpleasant,1,387,unpleasant11.jpg
582774425,neutral,1,488,N106.bmp
582774425,pleasant,1,457,pleasant3.jpg
582774425,black,0,393,black2.png
582774425,neutral,1,538,N102.bmp
582774425,pleasant,1,534,pleasant1.jpg
582774425,black,0,436,black3.png
582774425,neutral,1,529,N092.bmp
582774425,pleasant,1,456,pleasant3.jpg
582774425,pleasant,1,541,pleasant1.jpg
582774425,unpleasant,1,439,unpleasant12.jpg
582774425,pleasant,1,435,pleasant10.jpg
582774425,black,0,399,black4.png
582774425,neutral,1,474,N020.bmp
582774425,unpleasant,1,579,unpleasant10.jpg
582774425,neutral,1,440,N089.bmp
582774425,pleasant,1,540,pleasant7.jpg
582774425,unpleasant,1,423,unpleasant11.jpg
582774425,unpleasant,1,408,unpleasant10.jpg
582774425,unpleasant,1,434,unpleasant9.jpg
582774425,pleasant,1,535,pleasant10.jpg
582774425,unpleasant,1,504,unpleasant12.jpg
582774425,neutral,1,449,N039.bmp
582774425,white,1,469,white2.png
582774425,neutral,1,575,N081.bmp
582774425,neutral,0,669,N011.bmp
582774425,neutral,1,514,N061.bmp
582774425,unpleasant,1,526,unpleasant12.jpg
582774425,pleasant,1,442,pleasant7.jpg
582774425,neutral,0,446,N101.bmp
582774425,white,0,475,white4.png
582774425,neutral,1,524,N081.bmp
582774425,black,0,470,black1.png
582774425,unpleasant,1,466,unpleasant9.jpg
582774425,pleasant,1,549,pleasant3.jpg
582774425,neutral,0,511,N011.bmp
582774425,neutral,0,532,N092.bmp
582774425,white,0,486,white3.png
582774425,white,0,533,white1.png
582774425,pleasant,1,449,pleasant1.jpg
582774425,unpleasant,1,418,unpleasant10.jpg
582774425,pleasant,1,525,pleasant3.jpg
582774425,unpleasant,1,385,unpleasant11.jpg
582774425,pleasant,1,484,pleasant7.jpg
582774425,neutral,0,414,N061.bmp
582774425,pleasant,1,475,pleasant1.jpg
582774425,black,1,532,black2.png
582774425,black,0,587,black1.png
582774425,white,1,368,white3.png
582774425,neutral,0,565,N089.bmp
582774425,unpleasant,1,435,unpleasant10.jpg
582774425,pleasant,1,484,pleasant10.jpg
582774425,neutral,0,438,N102.bmp
582774425,unpleasant,1,507,unpleasant12.jpg
582774425,unpleasant,1,467,unpleasant11.jpg
582774425,unpleasant,1,352,unpleasant9.jpg
582774425,black,1,441,black3.png
582774425,pleasant,1,423,pleasant1.jpg
582774425,unpleasant,1,562,unpleasant10.jpg
582774425,neutral,1,416,N020.bmp
582774425,pleasant,0,442,pleasant7.jpg
582774425,pleasant,1,429,pleasant3.jpg
582774425,pleasant,0,439,pleasant10.jpg
582774425,unpleasant,1,382,unpleasant11.jpg
582774425,pleasant,0,473,pleasant3.jpg
582774425,pleasant,1,427,pleasant10.jpg
582774425,neutral,1,683,N101.bmp
582774425,unpleasant,1,544,unpleasant9.jpg
582774425,pleasant,1,452,pleasant1.jpg
582774425,neutral,0,412,N106.bmp
582774425,pleasant,1,489,pleasant7.jpg
582774425,pleasant,1,481,pleasant10.jpg
582774425,unpleasant,1,529,unpleasant12.jpg
582774425,pleasant,1,520,pleasant3.jpg
582774425,white,0,428,white2.png
582774425,unpleasant,1,423,unpleasant9.jpg
582774425,neutral,1,545,N039.bmp
582774425,neutral,1,610,N081.bmp
582774425,black,1,402,black4.png
582774425,white,1,394,white4.png
582774425,pleasant,1,417,pleasant1.jpg
582774425,white,1,408,white1.png
582774425,neutral,1,575,N106.bmp
582774425,neutral,0,800,N101.bmp
582774425,pleasant,1,466,pleasant7.jpg
582774425,neutral,0,478,N102.bmp
582774425,neutral,1,446,N011.bmp
582774425,neutral,1,509,N020.bmp
582774425,white,1,534,white3.png
582774425,neutral,0,590,N061.bmp
582774425,unpleasant,1,514,unpleasant10.jpg
582774425,neutral,1,499,N039.bmp
582774425,unpleasant,1,528,unpleasant12.jpg
582774425,neutral,0,455,N092.bmp
582774425,pleasant,1,569,pleasant3.jpg
582774425,black,0,308,black2.png
582774425,white,1,345,white1.png
582774425,pleasant,1,510,pleasant7.jpg
582774425,pleasant,0,404,pleasant10.jpg
582774425,pleasant,1,434,pleasant1.jpg
582774425,neutral,1,442,N089.bmp
582774425,unpleasant,1,429,unpleasant11.jpg
582774425,neutral,1,461,N092.bmp
582774425,unpleasant,1,488,unpleasant12.jpg
582774425,unpleasant,1,474,unpleasant10.jpg
582774425,unpleasant,1,514,unpleasant11.jpg
582774425,black,0,432,black1.png
582774425,white,0,446,white2.png
582774425,unpleasant,0,437,unpleasant9.jpg
582774425,neutral,0,374,N061.bmp
582774425,unpleasant,1,481,unpleasant11.jpg
582774425,white,0,471,white4.png
582774425,unpleasant,1,478,unpleasant10.jpg
582774425,black,0,368,black4.png
582774425,neutral,0,576,N039.bmp
582774425,unpleasant,1,495,unpleasant9.jpg
582774425,neutral,0,416,N020.bmp
582774425,black,0,437,black3.png
582774425,neutral,0,522,N101.bmp
582774425,black,0,411,black1.png
582774425,unpleasant,1,456,unpleasant12.jpg
582774425,pleasant,1,518,pleasant10.jpg
582774425,unpleasant,1,438,unpleasant10.jpg
582774425,pleasant,1,496,pleasant3.jpg
582774425,unpleasant,1,488,unpleasant11.jpg
582774425,neutral,1,516,N089.bmp
582774425,pleasant,1,533,pleasant7.jpg
582774425,neutral,0,490,N106.bmp
582774425,white,1,560,white4.png
582774425,unpleasant,1,502,unpleasant12.jpg
582774425,pleasant,1,506,pleasant1.jpg
582774425,unpleasant,1,494,unpleasant9.jpg
582774425,black,0,431,black4.png
582774425,black,0,405,black2.png
582774425,white,0,433,white2.png
582774425,neutral,1,675,N011.bmp
582774425,pleasant,1,482,pleasant1.jpg
582774425,neutral,0,487,N102.bmp
582774425,unpleasant,1,567,unpleasant10.jpg
582774425,unpleasant,1,411,unpleasant12.jpg
582774425,unpleasant,1,563,unpleasant9.jpg
582774425,neutral,1,495,N081.bmp
582774425,white,0,478,white1.png
582774425,black,1,392,black3.png
582774425,neutral,0,461,N081.bmp
582774425,pleasant,1,423,pleasant10.jpg
582774425,neutral,0,523,N102.bmp
582774425,unpleasant,1,601,unpleasant11.jpg
582774425,neutral,0,415,N039.bmp
582774425,unpleasant,1,420,unpleasant12.jpg
582774425,unpleasant,1,543,unpleasant11.jpg
582774425,black,0,492,black4.png
582774425,unpleasant,0,438,unpleasant9.jpg
582774425,white,0,356,white3.png
582774425,unpleasant,1,485,unpleasant10.jpg
582774425,black,0,366,black1.png
582774425,neutral,0,437,N061.bmp
582774425,unpleasant,1,576,unpleasant9.jpg
582774425,unpleasant,1,399,unpleasant11.jpg
582774425,neutral,0,562,N092.bmp
582774425,unpleasant,1,501,unpleasant10.jpg
85657314,unpleasant,1,627,unpleasant10.jpg
85657314,neutral,0,529,N011.bmp
85657314,pleasant,1,500,pleasant3.jpg
85657314,unpleasant,1,394,unpleasant12.jpg
85657314,unpleasant,1,601,unpleasant11.jpg
85657314,neutral,0,501,N081.bmp
85657314,neutral,1,667,N061.bmp
85657314,unpleasant,1,517,unpleasant10.jpg
85657314,white,1,608,white4.png
85657314,unpleasant,1,585,unpleasant12.jpg
85657314,pleasant,1,501,pleasant1.jpg
85657314,neutral,0,470,N039.bmp
85657314,neutral,0,630,N101.bmp
85657314,unpleasant,1,600,unpleasant9.jpg
85657314,black,1,590,black4.png
85657314,pleasant,1,603,pleasant3.jpg
85657314,neutral,1,563,N092.bmp
85657314,pleasant,0,429,pleasant10.jpg
85657314,pleasant,1,520,pleasant7.jpg
85657314,pleasant,1,503,pleasant1.jpg
85657314,neutral,1,502,N089.bmp
85657314,unpleasant,1,619,unpleasant10.jpg
85657314,unpleasant,1,541,unpleasant9.jpg
85657314,unpleasant,1,467,unpleasant12.jpg
85657314,pleasant,1,549,pleasant7.jpg
85657314,pleasant,1,589,pleasant1.jpg
85657314,neutral,1,515,N020.bmp
85657314,white,1,682,white2.png
85657314,unpleasant,1,571,unpleasant11.jpg
85657314,neutral,0,748,N102.bmp
85657314,pleasant,1,591,pleasant3.jpg
85657314,unpleasant,1,567,unpleasant12.jpg
85657314,white,0,500,white1.png
85657314,unpleasant,1,556,unpleasant11.jpg
85657314,neutral,1,556,N106.bmp
85657314,neutral,0,597,N011.bmp
85657314,neutral,0,800,N092.bmp
85657314,pleasant,1,603,pleasant10.jpg
85657314,black,1,499,black2.png
85657314,black,0,800,black1.png
85657314,neutral,1,699,N089.bmp
85657314,pleasant,1,687,pleasant3.jpg
85657314,neutral,0,502,N039.bmp
85657314,neutral,0,570,N106.bmp
85657314,black,1,627,black3.png
85657314,pleasant,1,576,pleasant7.jpg
85657314,unpleasant,1,500,unpleasant9.jpg
85657314,pleasant,0,361,pleasant10.jpg
85657314,pleasant,1,564,pleasant1.jpg
85657314,unpleasant,0,503,unpleasant10.jpg
85657314,neutral,0,676,N081.bmp
85657314,unpleasant,1,692,unpleasant9.jpg
85657314,unpleasant,1,567,unpleasant11.jpg
85657314,pleasant,0,550,pleasant3.jpg
85657314,pleasant,1,472,pleasant1.jpg
85657314,pleasant,1,546,pleasant7.jpg
85657314,unpleasant,1,510,unpleasant12.jpg
85657314,white,0,549,white3.png
85657314,unpleasant,1,576,unpleasant10.jpg
85657314,neutral,0,499,N101.bmp
85657314,neutral,1,656,N061.bmp
85657314,neutral,0,632,N102.bmp
85657314,black,1,622,black3.png
85657314,unpleasant,1,418,unpleasant10.jpg
85657314,white,1,532,white4.png
85657314,white,0,737,white3.png
85657314,unpleasant,1,612,unpleasant9.jpg
85657314,black,1,700,black2.png
85657314,neutral,0,536,N020.bmp
85657314,neutral,1,679,N011.bmp
85657314,neutral,0,628,N092.bmp
85657314,neutral,0,800,N020.bmp
85657314,white,0,686,white1.png
85657314,neutral,0,699,N061.bmp
85657314,black,1,742,black1.png
85657314,pleasant,1,535,pleasant10.jpg
85657314,pleasant,1,473,pleasant7.jpg
85657314,unpleasant,1,668,unpleasant12.jpg
85657314,neutral,0,660,N106.bmp
85657314,white,0,526,white2.png
85657314,unpleasant,1,546,unpleasant11.jpg
85657314,unpleasant,0,433,unpleasant12.jpg
85657314,neutral,0,642,N102.bmp
85657314,pleasant,1,625,pleasant10.jpg
85657314,neutral,0,708,N101.bmp
85657314,neutral,1,594,N089.bmp
85657314,unpleasant,1,557,unpleasant11.jpg
85657314,pleasant,1,586,pleasant3.jpg
85657314,unpleasant,1,473,unpleasant10.jpg
85657314,neutral,0,507,N081.bmp
85657314,white,0,672,white2.png
85657314,unpleasant,0,526,unpleasant9.jpg
85657314,pleasant,1,642,pleasant1.jpg
85657314,white,0,479,white3.png
85657314,neutral,0,653,N039.bmp
85657314,neutral,0,800,N092.bmp
85657314,black,0,629,black4.png
85657314,unpleasant,1,539,unpleasant12.jpg
85657314,unpleasant,1,505,unpleasant10.jpg
85657314,unpleasant,1,524,unpleasant11.jpg
85657314,pleasant,1,546,pleasant10.jpg
85657314,pleasant,1,552,pleasant7.jpg
85657314,pleasant,0,452,pleasant1.jpg
85657314,unpleasant,1,504,unpleasant9.jpg
85657314,unpleasant,1,523,unpleasant9.jpg
85657314,neutral,0,675,N039.bmp
85657314,neutral,1,700,N020.bmp
85657314,neutral,0,800,N011.bmp
85657314,unpleasant,0,560,unpleasant10.jpg
85657314,black,1,573,black1.png
85657314,neutral,0,703,N089.bmp
85657314,neutral,0,619,N102.bmp
85657314,pleasant,1,599,pleasant3.jpg
85657314,neutral,0,635,N106.bmp
85657314,unpleasant,1,478,unpleasant12.jpg
85657314,black,1,521,black3.png
85657314,white,1,586,white1.png
85657314,neutral,0,639,N081.bmp
85657314,black,1,786,black2.png
85657314,neutral,1,597,N061.bmp
85657314,neutral,1,620,N101.bmp
85657314,neutral,1,690,N011.bmp
85657314,white,1,683,white4.png
85657314,white,1,576,white3.png
85657314,pleasant,1,725,pleasant1.jpg
85657314,unpleasant,1,537,unpleasant11.jpg
85657314,unpleasant,1,484,unpleasant10.jpg
85657314,black,1,430,black4.png
85657314,neutral,0,619,N020.bmp
85657314,black,0,639,black2.png
85657314,pleasant,1,542,pleasant10.jpg
85657314,pleasant,1,558,pleasant3.jpg
85657314,pleasant,1,288,pleasant7.jpg
85657314,unpleasant,1,534,unpleasant11.jpg
85657314,unpleasant,1,309,unpleasant9.jpg
85657314,pleasant,0,469,pleasant7.jpg
85657314,white,1,777,white4.png
85657314,neutral,0,630,N039.bmp
85657314,pleasant,1,660,pleasant1.jpg
85657314,neutral,0,515,N102.bmp
85657314,unpleasant,1,716,unpleasant12.jpg
85657314,neutral,0,459,N081.bmp
85657314,black,1,666,black4.png
85657314,pleasant,0,456,pleasant3.jpg
85657314,unpleasant,1,531,unpleasant12.jpg
85657314,pleasant,1,504,pleasant10.jpg
85657314,pleasant,1,453,pleasant10.jpg
85657314,white,0,612,white1.png
85657314,unpleasant,1,659,unpleasant9.jpg
85657314,pleasant,1,469,pleasant3.jpg
85657314,white,1,581,white2.png
85657314,pleasant,1,631,pleasant1.jpg
85657314,black,1,480,black1.png
85657314,white,1,739,white1.png
85657314,unpleasant,1,547,unpleasant11.jpg
85657314,black,1,553,black3.png
85657314,black,0,630,black2.png
85657314,white,0,569,white4.png
85657314,pleasant,1,579,pleasant7.jpg
85657314,neutral,0,787,N089.bmp
85657314,unpleasant,1,657,unpleasant10.jpg
85657314,white,1,637,white2.png
85657314,black,1,529,black1.png
85657314,white,0,800,white3.png
85657314,unpleasant,1,540,unpleasant11.jpg
85657314,pleasant,1,785,pleasant3.jpg
85657314,pleasant,1,493,pleasant1.jpg
85657314,unpleasant,0,469,unpleasant10.jpg
85657314,pleasant,1,566,pleasant10.jpg
85657314,pleasant,1,449,pleasant7.jpg
85657314,pleasant,1,464,pleasant3.jpg
85657314,neutral,0,415,N101.bmp
85657314,unpleasant,1,551,unpleasant9.jpg
85657314,neutral,0,602,N106.bmp
85657314,neutral,1,558,N061.bmp
85657314,pleasant,1,554,pleasant7.jpg
85657314,pleasant,1,473,pleasant1.jpg
85657314,pleasant,1,476,pleasant10.jpg
85657314,pleasant,1,519,pleasant10.jpg
85657314,neutral,0,542,N092.bmp
85657314,neutral,0,485,N061.bmp
85657314,neutral,0,539,N081.bmp
85657314,neutral,1,503,N106.bmp
85657314,unpleasant,1,546,unpleasant12.jpg
85657314,unpleasant,1,572,unpleasant12.jpg
85657314,black,1,570,black3.png
85657314,white,0,560,white1.png
85657314,unpleasant,1,606,unpleasant10.jpg
85657314,pleasant,1,571,pleasant7.jpg
85657314,pleasant,1,523,pleasant3.jpg
85657314,white,1,406,white3.png
85657314,pleasant,1,652,pleasant1.jpg
85657314,pleasant,1,452,pleasant10.jpg
85657314,pleasant,1,621,pleasant7.jpg
85657314,pleasant,1,411,pleasant1.jpg
85657314,neutral,1,453,N092.bmp
85657314,black,0,800,black4.png
85657314,pleasant,1,532,pleasant3.jpg
85657314,unpleasant,0,278,unpleasant9.jpg
85657314,unpleasant,1,583,unpleasant11.jpg
85657314,black,0,699,black1.png
85657314,unpleasant,1,525,unpleasant12.jpg
85657314,white,1,548,white2.png
85657314,black,1,467,black3.png
85657314,neutral,0,537,N102.bmp
85657314,pleasant,1,551,pleasant1.jpg
85657314,neutral,1,451,N020.bmp
85657314,black,1,633,black4.png
85657314,neutral,1,757,N011.bmp
85657314,neutral,1,553,N089.bmp
85657314,unpleasant,1,579,unpleasant9.jpg
85657314,pleasant,1,530,pleasant10.jpg
85657314,neutral,0,562,N039.bmp
85657314,neutral,0,729,N101.bmp
85657314,pleasant,1,509,pleasant3.jpg
85657314,neutral,1,628,N020.bmp
85657314,unpleasant,1,568,unpleasant11.jpg
85657314,neutral,1,521,N081.bmp
85657314,neutral,1,731,N092.bmp
85657314,neutral,0,491,N102.bmp
85657314,neutral,0,694,N039.bmp
85657314,unpleasant,1,698,unpleasant10.jpg
85657314,white,1,550,white4.png
85657314,neutral,1,646,N061.bmp
85657314,neutral,0,540,N101.bmp
85657314,unpleasant,1,523,unpleasant9.jpg
85657314,pleasant,1,594,pleasant7.jpg
85657314,neutral,1,570,N011.bmp
85657314,unpleasant,0,430,unpleasant12.jpg
85657314,unpleasant,1,521,unpleasant10.jpg
85657314,white,0,612,white1.png
85657314,black,0,548,black2.png
85657314,pleasant,1,557,pleasant10.jpg
85657314,unpleasant,1,536,unpleasant11.jpg
85657314,neutral,0,495,N106.bmp
85657314,neutral,0,566,N089.bmp
85657314,neutral,0,736,N081.bmp
85657314,pleasant,1,558,pleasant7.jpg
85657314,unpleasant,1,600,unpleasant11.jpg
85657314,neutral,1,540,N106.bmp
85657314,black,0,503,black1.png
85657314,unpleasant,1,550,unpleasant10.jpg
85657314,neutral,0,419,N089.bmp
85657314,pleasant,1,560,pleasant1.jpg
85657314,unpleasant,1,457,unpleasant12.jpg
85657314,pleasant,1,604,pleasant3.jpg
85657314,pleasant,1,434,pleasant3.jpg
85657314,neutral,0,479,N011.bmp
85657314,unpleasant,1,580,unpleasant9.jpg
85657314,pleasant,1,503,pleasant10.jpg
17040152,white,1,771,white3.png
17040152,neutral,1,645,N106.bmp
17040152,neutral,1,797,N011.bmp
17040152,pleasant,1,662,pleasant10.jpg
17040152,unpleasant,1,573,unpleasant9.jpg
17040152,neutral,0,462,N089.bmp
17040152,unpleasant,1,489,unpleasant10.jpg
17040152,white,0,525,white4.png
17040152,pleasant,0,496,pleasant3.jpg
17040152,unpleasant,1,570,unpleasant9.jpg
17040152,neutral,0,465,N061.bmp
17040152,neutral,0,471,N101.bmp
17040152,unpleasant,1,484,unpleasant12.jpg
17040152,unpleasant,1,539,unpleasant10.jpg
17040152,black,1,750,black4.png
17040152,unpleasant,1,688,unpleasant11.jpg
17040152,black,1,575,black1.png
17040152,pleasant,1,620,pleasant7.jpg
17040152,unpleasant,1,604,unpleasant12.jpg
17040152,pleasant,1,573,pleasant10.jpg
17040152,black,1,576,black3.png
17040152,black,1,427,black2.png
17040152,pleasant,1,605,pleasant1.jpg
17040152,neutral,1,612,N020.bmp
17040152,white,1,540,white1.png
17040152,pleasant,1,619,pleasant3.jpg
17040152,pleasant,1,594,pleasant10.jpg
17040152,unpleasant,0,505,unpleasant11.jpg
17040152,neutral,0,539,N039.bmp
17040152,neutral,0,436,N102.bmp
17040152,white,0,800,white2.png
17040152,unpleasant,1,552,unpleasant10.jpg
17040152,pleasant,1,573,pleasant1.jpg
17040152,white,1,490,white2.png
17040152,white,1,507,white1.png
17040152,neutral,1,486,N092.bmp
17040152,pleasant,1,566,pleasant3.jpg
17040152,neutral,1,462,N081.bmp
17040152,neutral,1,414,N081.bmp
17040152,neutral,1,394,N020.bmp
17040152,neutral,1,460,N011.bmp
17040152,neutral,1,429,N061.bmp
17040152,white,1,385,white4.png
17040152,neutral,1,442,N102.bmp
17040152,pleasant,1,536,pleasant7.jpg
17040152,white,1,457,white3.png
17040152,pleasant,1,562,pleasant3.jpg
17040152,unpleasant,1,598,unpleasant9.jpg
17040152,white,0,529,white1.png
17040152,black,0,384,black2.png
17040152,unpleasant,1,536,unpleasant10.jpg
17040152,black,0,381,black1.png
17040152,black,0,348,black4.png
17040152,neutral,0,495,N106.bmp
17040152,pleasant,0,800,pleasant10.jpg
17040152,neutral,0,616,N092.bmp
17040152,neutral,0,418,N089.bmp
17040152,pleasant,1,519,pleasant1.jpg
17040152,pleasant,1,310,pleasant7.jpg
17040152,black,1,466,black3.png
17040152,neutral,1,534,N101.bmp
17040152,unpleasant,0,487,unpleasant12.jpg
17040152,unpleasant,1,676,unpleasant11.jpg
17040152,black,0,425,black1.png
17040152,white,0,418,white4.png
17040152,neutral,0,557,N039.bmp
17040152,unpleasant,1,579,unpleasant9.jpg
17040152,pleasant,0,428,pleasant10.jpg
17040152,pleasant,1,607,pleasant3.jpg
17040152,black,1,455,black2.png
17040152,black,1,346,black4.png
17040152,neutral,1,493,N106.bmp
17040152,pleasant,1,581,pleasant1.jpg
17040152,unpleasant,1,583,unpleasant10.jpg
17040152,unpleasant,1,394,unpleasant11.jpg
17040152,pleasant,0,436,pleasant7.jpg
17040152,neutral,0,800,N089.bmp
17040152,unpleasant,1,483,unpleasant12.jpg
17040152,neutral,0,753,N039.bmp
17040152,unpleasant,1,605,unpleasant9.jpg
17040152,white,0,443,white3.png
17040152,white,0,427,white2.png
17040152,black,0,345,black3.png
17040152,unpleasant,1,499,unpleasant10.jpg
17040152,pleasant,1,568,pleasant3.jpg
17040152,unpleasant,0,456,unpleasant11.jpg
17040152,neutral,1,616,N101.bmp
17040152,pleasant,1,674,pleasant7.jpg
17040152,black,1,653,black4.png
17040152,unpleasant,1,605,unpleasant12.jpg
17040152,unpleasant,1,451,unpleasant9.jpg
17040152,unpleasant,1,473,unpleasant9.jpg
17040152,neutral,0,537,N092.bmp
17040152,unpleasant,1,413,unpleasant12.jpg
17040152,pleasant,1,505,pleasant1.jpg
17040152,pleasant,1,605,pleasant10.jpg
17040152,neutral,1,612,N081.bmp
17040152,white,1,537,white4.png
17040152,unpleasant,0,499,unpleasant11.jpg
17040152,neutral,0,555,N061.bmp
17040152,unpleasant,1,569,unpleasant10.jpg
17040152,neutral,0,670,N020.bmp
17040152,neutral,0,453,N011.bmp
17040152,pleasant,1,613,pleasant7.jpg
17040152,neutral,1,437,N102.bmp
17040152,neutral,1,529,N081.bmp
17040152,pleasant,1,570,pleasant10.jpg
17040152,neutral,1,535,N061.bmp
17040152,unpleasant,1,526,unpleasant12.jpg
17040152,neutral,0,472,N092.bmp
17040152,pleasant,1,570,pleasant1.jpg
17040152,neutral,1,533,N101.bmp
17040152,unpleasant,0,440,unpleasant10.jpg
17040152,unpleasant,1,487,unpleasant11.jpg
17040152,pleasant,1,666,pleasant3.jpg
17040152,neutral,1,499,N011.bmp
17040152,unpleasant,1,556,unpleasant9.jpg
17040152,unpleasant,1,413,unpleasant12.jpg
17040152,neutral,0,590,N039.bmp
17040152,neutral,1,541,N106.bmp
17040152,pleasant,1,536,pleasant7.jpg
17040152,pleasant,1,571,pleasant10.jpg
17040152,pleasant,1,519,pleasant1.jpg
17040152,unpleasant,0,455,unpleasant11.jpg
17040152,pleasant,1,540,pleasant3.jpg
17040152,pleasant,1,537,pleasant10.jpg
17040152,neutral,1,480,N020.bmp
17040152,pleasant,1,470,pleasant1.jpg
17040152,pleasant,1,535,pleasant7.jpg
17040152,black,1,512,black2.png
17040152,neutral,1,537,N089.bmp
17040152,neutral,1,453,N102.bmp
17040152,pleasant,1,520,pleasant3.jpg
17040152,unpleasant,1,572,unpleasant9.jpg
17040152,unpleasant,1,507,unpleasant10.jpg
17040152,unpleasant,1,461,unpleasant12.jpg
17040152,white,0,486,white1.png
17040152,neutral,0,500,N101.bmp
17040152,pleasant,1,678,pleasant3.jpg
17040152,neutral,1,580,N081.bmp
17040152,unpleasant,1,646,unpleasant10.jpg
17040152,unpleasant,1,562,unpleasant11.jpg
17040152,pleasant,1,589,pleasant7.jpg
17040152,pleasant,1,520,pleasant1.jpg
17040152,neutral,1,504,N011.bmp
17040152,white,0,491,white3.png
17040152,neutral,0,726,N061.bmp
17040152,neutral,0,488,N102.bmp
17040152,unpleasant,1,587,unpleasant9.jpg
17040152,unpleasant,1,565,unpleasant12.jpg
17040152,black,0,800,black1.png
17040152,neutral,0,569,N089.bmp
17040152,pleasant,1,712,pleasant10.jpg
17040152,pleasant,1,436,pleasant10.jpg
17040152,unpleasant,1,582,unpleasant11.jpg
17040152,white,0,417,white2.png
17040152,neutral,0,480,N092.bmp
17040152,black,0,394,black3.png
17040152,neutral,0,505,N039.bmp
17040152,unpleasant,1,684,unpleasant10.jpg
17040152,unpleasant,1,562,unpleasant9.jpg
17040152,neutral,0,484,N106.bmp
17040152,neutral,0,403,N020.bmp
17040152,black,0,460,black3.png
17040152,pleasant,1,690,pleasant3.jpg
17040152,pleasant,1,461,pleasant7.jpg
17040152,pleasant,1,495,pleasant1.jpg
17040152,black,1,559,black2.png
17040152,unpleasant,0,496,unpleasant11.jpg
17040152,white,1,530,white2.png
17040152,unpleasant,1,531,unpleasant9.jpg
17040152,unpleasant,1,583,unpleasant10.jpg
17040152,pleasant,1,561,pleasant1.jpg
17040152,pleasant,1,465,pleasant10.jpg
17040152,pleasant,1,554,pleasant3.jpg
17040152,white,1,642,white1.png
17040152,neutral,1,497,N011.bmp
17040152,white,1,376,white3.png
17040152,pleasant,1,505,pleasant7.jpg
17040152,neutral,1,514,N020.bmp
17040152,neutral,1,539,N039.bmp
17040152,neutral,1,485,N092.bmp
17040152,neutral,1,413,N089.bmp
17040152,unpleasant,1,700,unpleasant12.jpg
17040152,neutral,0,790,N081.bmp
17040152,pleasant,1,656,pleasant10.jpg
17040152,pleasant,1,575,pleasant1.jpg
17040152,pleasant,1,579,pleasant3.jpg
17040152,neutral,1,571,N106.bmp
17040152,unpleasant,0,407,unpleasant12.jpg
17040152,black,0,800,black1.png
17040152,pleasant,1,528,pleasant7.jpg
17040152,black,1,504,black4.png
17040152,neutral,1,491,N102.bmp
17040152,pleasant,1,487,pleasant3.jpg
17040152,pleasant,1,419,pleasant7.jpg
17040152,pleasant,1,473,pleasant10.jpg
17040152,unpleasant,1,636,unpleasant10.jpg
17040152,neutral,0,505,N101.bmp
17040152,white,0,423,white4.png
17040152,unpleasant,1,486,unpleasant9.jpg
17040152,pleasant,0,396,pleasant1.jpg
17040152,white,1,463,white4.png
17040152,unpleasant,1,645,unpleasant11.jpg
17040152,neutral,0,482,N061.bmp
17040152,unpleasant,1,486,unpleasant11.jpg
17040152,neutral,0,496,N089.bmp
17040152,neutral,0,507,N102.bmp
17040152,unpleasant,1,603,unpleasant12.jpg
17040152,black,0,477,black4.png
17040152,neutral,0,468,N092.bmp
17040152,unpleasant,1,603,unpleasant9.jpg
17040152,neutral,0,419,N061.bmp
17040152,pleasant,1,520,pleasant10.jpg
17040152,black,1,543,black3.png
17040152,pleasant,1,582,pleasant7.jpg
17040152,white,1,453,white1.png
17040152,unpleasant,1,519,unpleasant10.jpg
17040152,unpleasant,1,440,unpleasant10.jpg
17040152,unpleasant,1,477,unpleasant11.jpg
17040152,neutral,0,437,N101.bmp
17040152,pleasant,1,559,pleasant3.jpg
17040152,white,1,664,white3.png
17040152,pleasant,1,509,pleasant1.jpg
17040152,neutral,1,646,N081.bmp
17040152,unpleasant,1,654,unpleasant9.jpg
17040152,neutral,0,419,N039.bmp
17040152,pleasant,1,520,pleasant10.jpg
17040152,neutral,1,581,N106.bmp
17040152,unpleasant,1,541,unpleasant12.jpg
17040152,neutral,0,503,N020.bmp
17040152,black,0,422,black1.png
17040152,white,0,370,white2.png
17040152,unpleasant,1,528,unpleasant9.jpg
17040152,pleasant,0,405,pleasant7.jpg
17040152,unpleasant,1,447,unpleasant12.jpg
17040152,neutral,0,401,N011.bmp
17040152,unpleasant,1,595,unpleasant11.jpg
17040152,black,0,504,black2.png
17040152,pleasant,1,538,pleasant1.jpg
17040152,pleasant,1,575,pleasant3.jpg
17040152,black,1,431,black3.png
17040152,neutral,1,435,N061.bmp
17040152,neutral,1,482,N039.bmp
17040152,neutral,1,411,N020.bmp
17040152,pleasant,1,452,pleasant7.jpg
17040152,neutral,1,493,N102.bmp
17040152,pleasant,1,574,pleasant1.jpg
17040152,unpleasant,0,453,unpleasant10.jpg
17040152,white,0,472,white1.png
695360630,neutral,0,521,N101.bmp
695360630,unpleasant,1,436,unpleasant11.jpg
695360630,neutral,0,460,N011.bmp
695360630,unpleasant,1,589,unpleasant12.jpg
695360630,pleasant,1,534,pleasant7.jpg
695360630,neutral,0,394,N102.bmp
695360630,neutral,0,453,N081.bmp
695360630,pleasant,1,540,pleasant10.jpg
695360630,unpleasant,1,390,unpleasant9.jpg
695360630,neutral,1,427,N061.bmp
695360630,unpleasant,1,615,unpleasant12.jpg
695360630,black,1,499,black2.png
695360630,pleasant,1,646,pleasant3.jpg
695360630,unpleasant,1,513,unpleasant10.jpg
695360630,unpleasant,1,553,unpleasant11.jpg
695360630,unpleasant,1,494,unpleasant9.jpg
695360630,unpleasant,1,505,unpleasant11.jpg
695360630,white,0,490,white3.png
695360630,pleasant,1,520,pleasant7.jpg
695360630,unpleasant,1,433,unpleasant12.jpg
695360630,black,0,544,black1.png
695360630,pleasant,1,516,pleasant1.jpg
695360630,neutral,0,457,N089.bmp
695360630,pleasant,1,469,pleasant10.jpg
695360630,unpleasant,1,518,unpleasant10.jpg
695360630,neutral,0,554,N020.bmp
695360630,unpleasant,1,461,unpleasant12.jpg
695360630,black,0,638,black3.png
695360630,unpleasant,1,551,unpleasant9.jpg
695360630,white,0,542,white1.png
695360630,black,0,723,black4.png
695360630,pleasant,1,589,pleasant1.jpg
695360630,white,0,438,white4.png
695360630,pleasant,1,491,pleasant7.jpg
695360630,pleasant,1,479,pleasant3.jpg
695360630,neutral,0,412,N106.bmp
695360630,neutral,0,412,N039.bmp
695360630,white,0,501,white2.png
695360630,pleasant,1,539,pleasant10.jpg
695360630,pleasant,1,468,pleasant10.jpg
695360630,pleasant,1,532,pleasant7.jpg
695360630,neutral,0,430,N092.bmp
695360630,white,0,473,white1.png
695360630,neutral,0,425,N089.bmp
695360630,neutral,0,568,N011.bmp
695360630,white,0,466,white4.png
695360630,unpleasant,1,538,unpleasant10.jpg
695360630,neutral,0,451,N092.bmp
695360630,black,0,392,black3.png
695360630,black,0,750,black1.png
695360630,unpleasant,1,532,unpleasant11.jpg
695360630,unpleasant,1,532,unpleasant10.jpg
695360630,neutral,0,427,N101.bmp
695360630,unpleasant,1,569,unpleasant12.jpg
695360630,pleasant,1,405,pleasant3.jpg
695360630,white,0,423,white3.png
695360630,white,0,417,white2.png
695360630,neutral,0,390,N081.bmp
695360630,neutral,0,595,N061.bmp
695360630,black,0,556,black4.png
695360630,unpleasant,0,492,unpleasant9.jpg
695360630,unpleasant,1,585,unpleasant11.jpg
695360630,pleasant,1,389,pleasant1.jpg
695360630,unpleasant,1,485,unpleasant12.jpg
695360630,unpleasant,1,581,unpleasant9.jpg
695360630,pleasant,1,562,pleasant10.jpg
695360630,pleasant,1,461,pleasant7.jpg
695360630,unpleasant,1,559,unpleasant10.jpg
695360630,unpleasant,1,521,unpleasant11.jpg
695360630,pleasant,1,469,pleasant1.jpg
695360630,unpleasant,1,508,unpleasant9.jpg
695360630,neutral,0,614,N020.bmp
695360630,neutral,0,527,N039.bmp
695360630,pleasant,1,407,pleasant3.jpg
695360630,unpleasant,1,510,unpleasant10.jpg
695360630,neutral,0,482,N106.bmp
695360630,neutral,0,536,N102.bmp
695360630,neutral,0,477,N020.bmp
695360630,white,0,551,white1.png
695360630,neutral,0,441,N081.bmp
695360630,pleasant,1,558,pleasant7.jpg
695360630,pleasant,1,496,pleasant10.jpg
695360630,white,0,481,white2.png
695360630,neutral,0,514,N106.bmp
695360630,black,0,507,black2.png
695360630,neutral,0,453,N101.bmp
695360630,pleasant,1,522,pleasant1.jpg
695360630,pleasant,1,537,pleasant3.jpg
695360630,unpleasant,1,509,unpleasant12.jpg
695360630,black,0,551,black3.png
695360630,neutral,0,660,N011.bmp
695360630,neutral,0,580,N061.bmp
695360630,unpleasant,1,512,unpleasant11.jpg
695360630,pleasant,1,502,pleasant10.jpg
695360630,black,0,418,black4.png
695360630,neutral,0,530,N092.bmp
695360630,pleasant,1,451,pleasant7.jpg
695360630,neutral,0,457,N039.bmp
695360630,neutral,0,508,N089.bmp
695360630,neutral,0,479,N102.bmp
695360630,neutral,0,458,N101.bmp
695360630,neutral,0,528,N039.bmp
695360630,unpleasant,1,534,unpleasant11.jpg
695360630,black,0,576,black2.png
695360630,neutral,0,755,N081.bmp
695360630,pleasant,1,571,pleasant3.jpg
695360630,unpleasant,1,525,unpleasant9.jpg
695360630,white,0,519,white4.png
695360630,black,0,611,black1.png
695360630,neutral,0,480,N020.bmp
695360630,neutral,0,548,N011.bmp
695360630,unpleasant,1,566,unpleasant12.jpg
695360630,pleasant,1,525,pleasant1.jpg
695360630,black,0,411,black2.png
695360630,white,0,640,white3.png
695360630,unpleasant,1,539,unpleasant10.jpg
695360630,pleasant,1,484,pleasant7.jpg
695360630,white,0,564,white2.png
695360630,unpleasant,1,529,unpleasant12.jpg
695360630,unpleasant,1,695,unpleasant10.jpg
695360630,pleasant,1,475,pleasant3.jpg
695360630,white,0,505,white3.png
695360630,unpleasant,1,599,unpleasant9.jpg
695360630,unpleasant,1,558,unpleasant11.jpg
695360630,neutral,0,437,N102.bmp
695360630,unpleasant,1,581,unpleasant9.jpg
695360630,unpleasant,1,533,unpleasant12.jpg
695360630,pleasant,1,542,pleasant1.jpg
695360630,pleasant,1,543,pleasant10.jpg
695360630,neutral,0,527,N106.bmp
695360630,neutral,0,693,N061.bmp
695360630,unpleasant,1,524,unpleasant11.jpg
695360630,neutral,0,466,N092.bmp
695360630,pleasant,1,495,pleasant7.jpg
695360630,neutral,0,395,N089.bmp
695360630,unpleasant,1,563,unpleasant10.jpg
695360630,unpleasant,1,472,unpleasant9.jpg
695360630,white,0,454,white4.png
695360630,neutral,0,548,N081.bmp
695360630,neutral,0,547,N039.bmp
695360630,unpleasant,1,633,unpleasant12.jpg
695360630,neutral,0,436,N102.bmp
695360630,white,0,467,white1.png
695360630,neutral,0,479,N061.bmp
695360630,neutral,0,416,N106.bmp
695360630,neutral,0,608,N101.bmp
695360630,pleasant,1,428,pleasant1.jpg
695360630,neutral,0,399,N011.bmp
695360630,neutral,0,629,N092.bmp
695360630,pleasant,1,569,pleasant3.jpg
695360630,neutral,0,448,N020.bmp
695360630,neutral,0,493,N089.bmp
695360630,white,0,429,white4.png
695360630,pleasant,1,457,pleasant10.jpg
695360630,pleasant,1,722,pleasant10.jpg
695360630,unpleasant,1,560,unpleasant11.jpg
695360630,pleasant,1,499,pleasant7.jpg
695360630,pleasant,1,524,pleasant3.jpg
695360630,white,0,546,white3.png
695360630,unpleasant,1,537,unpleasant10.jpg
695360630,pleasant,1,547,pleasant1.jpg
695360630,neutral,0,385,N020.bmp
695360630,neutral,0,465,N092.bmp
695360630,unpleasant,1,638,unpleasant9.jpg
695360630,unpleasant,1,528,unpleasant10.jpg
695360630,black,0,478,black4.png
695360630,neutral,0,577,N102.bmp
695360630,white,0,419,white1.png
695360630,neutral,0,516,N061.bmp
695360630,unpleasant,1,614,unpleasant11.jpg
695360630,neutral,0,480,N101.bmp
695360630,white,0,673,white2.png
695360630,unpleasant,1,557,unpleasant12.jpg
695360630,neutral,0,428,N089.bmp
695360630,unpleasant,1,730,unpleasant12.jpg
695360630,pleasant,1,469,pleasant10.jpg
695360630,white,0,652,white1.png
695360630,unpleasant,1,509,unpleasant10.jpg
695360630,black,0,409,black1.png
695360630,neutral,0,513,N011.bmp
695360630,white,0,634,white3.png
695360630,white,0,438,white4.png
695360630,pleasant,1,484,pleasant7.jpg
695360630,pleasant,1,397,pleasant1.jpg
695360630,pleasant,1,493,pleasant3.jpg
695360630,neutral,0,475,N081.bmp
695360630,pleasant,1,543,pleasant3.jpg
695360630,unpleasant,1,544,unpleasant11.jpg
695360630,pleasant,1,517,pleasant7.jpg
695360630,black,0,426,black3.png
695360630,neutral,0,644,N039.bmp
695360630,unpleasant,1,602,unpleasant9.jpg
695360630,neutral,0,455,N106.bmp
695360630,pleasant,1,539,pleasant1.jpg
